-362,,,,,,,
453,1828,12608,-8744,30.41,51,-685,-309
454,1412,12844,-8488,30.46,-                                           ,,
Sample,aX,aY,az,Temp,gX,gY,gz                                                   
1,6772,6248,-12616,30.46,6474,600,2252
2,7552,5916,-12744,30.37,907,1411,1075
3,7620,5248,-11716,30.51,242,-245,3183
4,7296,3992,-11284,30.32,1054,-1884,1345
5,8140,4756,-13884,30.32,403,-1374,520
6,6268,4968,-13072,30.41,-343,-476,-2128
7,5488,5764,-13320,30.41,1158,-371,-1307
8,5804,5928,-13304,30.46,438,790,-827
9,6380,4596,-13228,30.46,306,307,-834
10,6188,4888,-12984,30.46,-243,-514,-552
11,6264,4756,-12472,30.37,-724,-1327,426
12,6052,4720,-13276,30.41,-314,-1406,693
13,5720,5032,-13328,30.51,-640,-1169,354
14,5488,4936,-13244,30.37,-884,-1123,107
15,5288,5148,-13132,30.41,-875,-825,-33
16,5320,4768,-13252,30.51,-113,-493,436
17,5432,4368,-13260,30.46,434,358,212
18,5748,4816,-13376,30.46,-1149,421,-135
19,5992,4992,-13072,30.51,-459,-200,-366
20,5680,4676,-13056,30.41,-518,134,86
21,5980,5032,-13000,30.51,-740,59,79
22,5856,4712,-12596,30.41,-756,-434,135
23,6032,4860,-12932,30.37,-716,-601,168
24,6068,4764,-13184,30.41,-473,-616,104
25,6012,4984,-13248,30.37,-905,-330,-428
26,5596,5280,-13020,30.46,-748,-312,-615
27,5448,5444,-13100,30.32,-632,-308,-587
28,5592,5376,-12848,30.41,-312,-91,-276
29,5768,5104,-13040,30.37,26,-142,-119
30,5748,4936,-13116,30.32,-204,-243,-8
31,5684,5188,-13192,30.32,-340,-230,32
32,5728,5184,-12912,30.27,-335,-262,-20
33,5708,5240,-13160,30.32,-256,-234,-72
34,5760,5044,-13024,30.37,-229,-184,-162
35,5636,5000,-13016,30.37,-259,-158,-201
36,5828,5096,-13076,30.41,-446,-59,-304
37,5564,5100.                                                               ,,,,,
Sample,aX,aY,az,Temp,gX,gY,gz                                                   
1,5824,5016,-13176,30.41,-331,-178,-172
2,5752,4960,-13104,30.46,-260,-183,-193
3,5864,5096,-13136,30.41,-386,-152,-133
4,5780,5008,-13064,30.37,-427,-203,-146
5,5756,5040,-13064,30.41,-304,-163,-102
6,5780,5004,-13056,30.37,-400,-214,-171
7,5796,5000,-13052,30.41,-432,-181,-121
8,5656,5036,-12996,30.46,-338,-225,-190
9,5684,5096,-13120,30.41,-399,-192,-183
10,5828,4936,-13068,30.37,-372,-186,-141
11,5716,5092,-13216,30.46,-359,-227,-165
12,5720,4984,-13028,30.41,-319,-238,-169
13,5800,4980,-13304,30.37,-401,-212,-182
14,5668,5032,-13036,30.41,-365,-215,-189
15,5756,4972,-13004,30.41,-264,-193,-161
16,5656,4948,-13188,30.46,-488,-173,-191
17,5712,5032,-13108,30.46,-409,-205,-190
18,5756,5056,-13116,30.41,-315,-139,-152
19,5764,4984,-13032,30.41,-306,-183,-224
20,5796,5024,-13124,30.46,-389,-191,-183
21,5820,5152,-13124,30.51,-377,-232,-156
22,5776,4984,-13148,30.32,-345,-218,-157
23,5764,4992,-13116,30.37,-328,-172,-128
24,5704,4920,-13136,30.46,-327,-189,-103
25,5688,5020,-12916,30.51,-326,-198,-103
26,5768,4932,-13140,30.41,-349,-199,-115
27,5764,4964,-13076,30.37,-328,-171,-142
28,5676,4952,-13120,30.41,-364,-183,-127
29,5748,5020,-13012,30.41,-445,-189,-128
30,5732,5040,-13116,30.41,-327,-170,-118
31,5792,5004,-13064,30.46,-398,-179,-170
32,5760,5084,-13080,30.41,-381,-147,-130
33,5740,5000,-13072,30.32,-406,-163,-172
34,5704,5016,-13104,30.37,-390,-168,-123
35,5732,5036,-13092,30.41,-393,-181,-145
36,5748,5080,-13048,30.41,-328,-140,-99
37,5664,4976,-13040,30.37,-334,-176,-165
38,5712,5128,-13004,30.41,-332,-209,-146
39,5656,5032,-13068,30.41,-349,-232,-147
40,5872,5012,-13116,30.46,-255,-197,-121
41,5812,5004,-13188,30.41,-370,-166,-100
42,5764,5032,-12996,30.41,-372,-214,-172
43,5748,5044,-13192,30.46,-365,-156,-95
44,5676,5000,-13088,30.41,-385,-249,-93
45,5752,4928,-12972,30.46,-369,-201,-130
46,5732,5016,-13072,30.37,-374,-157,-124
47,5792,4924,-13124,30.41,-341,-192,-112
48,5776,5032,-13124,30.41,-377,-242,-213
49,5660,5004,-13176,30.55,-326,-194,-219
50,5736,4988,-13080,30.37,-318,-183,-135
51,5800,4820,-13168,30.41,-354,-179,-166
52,5864,4900,-13140,30.41,-396,-160,-137
53,5684,4996,-13144,30.37,-408,-265,-182
54,5776,5012,-13344,30.41,-414,-220,-140
55,5712,4880,-13120,30.41,-434,-258,-222
56,5672,5052,-13212,30.41,-335,-179,-147
57,5656,5032,-13040,30.46,-432,-218,-163
58,5696,4964,-13096,30.46,-353,-240,-167
59,5752,5028,-13068,30.41,-333,-226,-151
60,5672,5076,-13036,30.41,-336,-168,-189
61,5748,5084,-13136,30.46,-360,-177,-157
62,5688,5060,-13112,30.46,-382,-177,-169
63,5660,5040,-12960,30.41,-381,-161,-141
64,5716,4936,-13080,30.41,-330,-144,-126
65,5808,5008,-13096,30.46,-342,-167,-171
66,5652,5072,-13116,30.55,-361,-159,-116
67,5608,4984,-13004,30.41,-394,-181,-145
68,5732,5132,-13100,30.41,-338,-112,-110
69,5756,4996,-13164,30.46,-346,-161,-139
70,5764,5028,-13080,30.41,-347,-179,-121
71,5784,4960,-12948,30.41,-400,-216,-170
72,5728,5024,-13008,30.46,-368,-158,-96
73,5748,5080,-13144,30.46,-307,-141,-97
74,5740,5096,-13064,30.41,-214,-143,-75
75,5776,4964,-13228,30.46,-341,-206,-165
76,5712,4964,-12960,30.41,-337,-211,-105
77,5720,4960,-13104,30.37,-346,-200,-170
78,5816,4948,-13172,30.37,-321,-160,-130
79,5804,5048,-13076,30.41,-462,-167,-178
80,5812,5024,-13136,30.46,-347,-117,-92
81,5696,4916,-13156,30.41,-363,-182,-120
82,5776,4988,-13032,30.41,-310,-237,-146
83,5832,4932,-13060,30.55,-396,-140,-81
84,5756,4956,-13100,30.32,-352,-180,-128
85,5732,4952,-13152,30.41,-372,-202,-194
86,5756,5060,-12996,30.46,-394,-182,-132
87,5716,4948,-13112,30.41,-349,-179,-162
88,5728,4956,-13072,30.41,-364,-206,-149
89,5888,4944,-13100,30.41,-342,-220,-128
90,5828,4888,-13120,30.46,-328,-163,-179
91,5732,5004,-12984,30.46,-492,-185,-154
92,5744,5032,-13256,30.41,-382,-183,-136
93,5764,5012,-12832,30.41,-321,-175,-124
94,5776,5068,-13164,30.37,-358,-187,-188
95,5840,5016,-13112,30.51,-389,-158,-126
96,5728,5000,-13212,30.41,-398,-162,-195
97,5788,5080,-13048,30.41,-438,-150,-170
98,5820,4892,-13076,30.55,-327,-210,-118
99,5816,4968,-13228,30.37,-370,-218,-141
100,5648,4916,-13120,30.51,-384,-243,-178
101,5860,5004,-13220,30.41,-383,-207,-180
102,5732,5016,-13072,30.41,-347,-218,-215
103,5748,4936,-13036,30.41,-410,-184,-138
104,5748,5120,-13080,30.41,-425,-248,-171
105,5676,5016,-12936,30.41,-367,-190,-172
106,5852,5068,-13148,30.41,-386,-194,-144
107,5780,4948,-13116,30.41,-433,-200,-186
108,5556,5004,-12992,30.41,-375,-313,-198
109,5760,4984,-13232,30.37,-392,-201,-133
110,5668,5068,-13112,30.37,-361,-175,-139
111,5712,5024,-13032,30.37,-400,-221,-168
112,5696,5040,-13096,30.55,-377,-222,-197
113,5656,5112,-13000,30.46,-334,-207,-118
114,5672,5060,-13084,30.41,-339,-230,-220
115,5644,5052,-12996,30.41,-541,-234,-177
116,5636,5248,-12948,30.41,-408,-150,-35
117,5704,5020,-13108,30.41,-376,-161,-29
118,5840,4964,-13120,30.46,-190,-151,-60
119,5824,4944,-13124,30.55,-293,-201,-168
120,5700,5016,-12980,30.46,-273,-193,-171
121,5644,5056,-13168,30.51,-255,-142,-116
122,5752,4996,-13248,30.51,-312,-136,-78
123,5764,4860,-13032,30.46,-295,-136,-97
124,5692,4984,-13132,30.32,-390,-190,-173
125,5788,4984,-13012,30.51,-409,-162,-159
126,5652,4944,-12924,30.51,-385,-192,-144
127,5780,5032,-13252,30.41,-386,-211,-137
128,5724,5008,-12964,30.51,-423,-222,-145
129,5748,5036,-13012,30.51,-370,-192,-119
130,5704,5040,-13056,30.6,-397,-258,-235
131,5696,5032,-13160,30.51,-393,-133,-122
132,5788,5068,-13020,30.46,-360,-183,-141
133,5816,5032,-12992,30.55,-351,-142,-134
134,5708,4932,-13008,30.46,-290,-169,-117
135,5744,5004,-13204,30.46,-338,-161,-150
136,5684,4944,-13092,30.55,-325,-195,-151
137,5788,4948,-13296,30.37,-380,-197,-141
138,5716,5084,-13060,30.46,-385,-183,-194
139,5844,5012,-13180,30.41,-402,-131,-136
140,5780,4932,-13216,30.51,-529,-270,-195
141,5744,5068,-13060,30.51,-412,-205,-152
142,5884,4980,-13100,30.41,-393,-147,-128
143,5860,5096,-13140,30.41,-405,-182,-124
144,5744,5020,-12968,30.51,-401,-254,-176
145,5716,5024,-13024,30.55,-377,-193,-132
146,5684,5012,-13000,30.46,-369,-164,-156
147,5768,4972,-13072,30.37,-324,-163,-105
148,5832,5076,-13140,30.46,-350,-200,-134
149,5684,5084,-12988,30.46,-298,-115,-114
150,5676,5064,-13048,30.46,-300,-195,-127
151,5844,5004,-13028,30.46,-441,-198,-90
152,5728,5024,-13036,30.41,-404,-210,-171
153,5848,5040,-13104,30.41,-331,-157,-106
154,5852,5128,-13004,30.51,-406,-220,-148
155,5748,4984,-13076,30.51,-345,-198,-190
156,5772,5028,-13104,30.41,-420,-270,-294
157,5688,5040,-12984,30.41,-462,-232,-242
158,5696,5088,-13112,30.55,-446,-253,-220
159,5648,5164,-13136,30.46,-474,-183,-201
160,5768,5096,-13104,30.46,-473,-225,-229
161,5696,5184,-13124,30.46,-416,-180,-190
162,5620,5104,-13128,30.46,-394,-208,-185
163,5780,5084,-13116,30.46,-311,-218,-161
164,5732,5028,-13216,30.37,-426,-198,-156
165,5652,5112,-12976,30.55,-301,-138,-132
166,5692,5136,-13096,30.46,-284,-145,-125
167,5580,5116,-12932,30.46,-287,-217,-175
168,5640,5228,-12988,30.41,-330,-179,-132
169,5656,5044,-13108,30.51,-316,-176,-149
170,5640,5004,-13036,30.51,-341,-179,-135
171,5716,5100,-13Ò                                                        ,,,,
172,1844,12780,-8120,30.51,-1975,197,-5289
173,336,10796,-8504,30.51,-5288,-973,-1510
174,-2020,11008,-12048,30.55,-5407,-456,1923
175,-1072,7392,-7788,30.51,1850,-1477,2799
176,-828,11308,-8788,30.46,2030,-4297,9573
177,3276,7200,-10092,30.46,123,-1649,1416
178,3756,11592,-10028,30.51,369,-348,-958
179,2832,11608,-10024,30.55,-2867,-273,-3919
180,1880,12728,-8288,30.41,-1643,-804,-1751
181,2044,12732,-9204,30.51,-314,-292,-1176
182,1880,12344,-8876,30.41,817,786,-2270
183,1812,12168,-8748,30.55,549,1086,-2348
184,1704,11880,-9136,30.6,975,846,-991
185,1632,11048,-9572,30.46,919,-212,1162
186,2160,12156,-9884,30.51,285,-1534,3160
187,1864,12788,-9368,30.41,-1534,-1922,2362
188,2364,11492,-9152,30.41,-189,-530,448
189,2052,13400,-9484,30.51,-1527,-54,-321
190,1432,13500,-9580,30.46,-17,-1947,4794
191,3240,11200,-8572,30.46,304,-205,55
192,1872,11028,-9692,30.55,-1754,-1002,1957
193,3056,11944,-9228,30.6,1052,1948,-1492
194,2584,11432,-9776,30.46,-41,211,-121
195,2796,11788,-9104,30.51,63,867,-1275
196,2304,11620,-9244,30.55,-33,235,-179
197,2860,11636,-9580,30.51,364,1029,-1046
198,2776,11832,-9572,30.46,-13,1117,-1608
199,2672,11652,-9212,30.55,-149,394,-880
200,2904,11348,-9976,30.51,-434,142,-465
201,2952,11524,-9492,30.55,-497,-553,-226
202,2624,11368,-9400,30.51,-259,-770,616
203,2788,11696,-9548,30.37,769,-472,874
204,2868,11512,-9876,30.51,-105,-1161,979
205,2744,11888,-9552,30.51,-469,-726,498
206,2644,11320,-9644,30.6,229,-550,569
207,2560,11412,-9520,30.46,469,-763,743
208,2924,11660,-9788,30.41,468,-514,646
209,2876,11092,-9816,30.46,396,-339,334
210,2752,12560,-9708,30.51,-46,394,-444
211,2320,11932,-9224,30.46,1148,1952,-1635
212,3200,11036,-10396,30.41,-295,503,-1439
213,2904,10608,-10388,30.41,-2082,-670,-1439
214,2600,10880,-9988,30.46,-829,-1224,-364
215,2776,10776,-9924,30.46,-1477,-874,-67
216,2256,12856,-8940,30.51,-1179,-1761,1066
217,2516,12684,-9336,30.51,-556,-110,123
218,2428,11420,-9740,30.55,-624,-917,631
219,2316,12672,-9076,30.6,-1121,-990,668
220,2436,11772,-9580,30.51,-354,-441,442
221,2344,11600,-9572,30.46,-315,-531,540
222,2740,11756,-9652,30.51,-375,-111,-173
223,2576,11200,-9780,30.6,-156,-280,-84
224,2552,11620,-9568,30.46,-101,46,-219
225,2564,11688,-9784,30.51,8,314,-552
226,2936,12656,-9808,30.51,3143,1770,-1435
227,3488,15556,-9436,30.51,3871,-1249,-1684
228,5572,11332,-6772,30.6,-892,-5109,1104
229,2112,8844,-9928,30.51,-1025,-7124,4672
230,-228,9284,-14124,30.51,-7033,-3844,3316
231,1308,9268,-9892,30.46,-3184,-2421,2932
232,2100,12312,-9164,30.46,-1272,-974,-215
233,1700,12296,-8752,30.46,-1615,1053,-1311
234,1120,12484,-9240,30.55,-2697,931,-6
235,2464,12548,-9508,30.51,-1963,-1249,2650
236,1296,11372,-9184,30.46,-2618,-464,1646
237,2644,12580,-8032,30.55,-1089,-923,889
238,2312,12612,-8720,30.51,280,-1004,456
239,1888,12592,-8408,30.46,3,-829,303
240,1996,12812,-8344,30.51,86,-440,-3
241,2128,12616,-8620,30.6,471,-372,-583
242,1204,12400,-8240,30.46,482,-502,-894
243,2256,12268,-8832,30.51,681,-222,-792
244,1976,12452,-8980,30.46,-76,-379,-936
245,1508,12440,-8880,30.55,-536,-207,-579
246,1636,12396,-8756,30.51,-515,-484,63
247,1556,12168,-8896,30.46,-264,-308,13
248,1440,12112,-8772,30.51,39,-164,148
249,2176,11832,-9304,30.55,-1207,-362,-113
250,1692,12928,-7984,30.46,-1248,-1207,237
251,1828,12200,-8860,30.55,1089,-70,-658
252,980,11572,-9608,30.51,-680,-572,39
253,1504,12560,-8348,30.41,-1260,228,-261
254,1636,12620,-8312,30.51,-665,517,-298
255,592,13012,-10156,30.65,-1171,-270,-17
256,1516,12804,-8252,30.55,-201,149,-692
257,1732,12020,-8556,30.6,29,760,-690
258,1872,12964,-9076,30.51,-1949,229,-318
259,1172,13320,-7800,30.51,-273,-375,-608
260,772,14552,-9572,30.51,-2458,-637,156
261,1952,13432,-7992,30.46,1181,661,-1354
262,1356,11208,-8156,30.55,-406,-910,539
263,2172,12276,-8352,30.51,-1106,-811,493
264,2000,13688,-8860,30.51,-1461,205,-441
265,1188,12176,-8176,30.51,579,1008,-878
266,1344,12824,-7740,30.55,-1231,-419,142
267,1508,12684,-7684,30.51,-144,-478,-95
268,1492,13172,-8436,30.51,-651,45,-63
269,1472,12984,-8116,30.6,212,219,-661
270,1440,12868,-8120,30.55,-703,-88,-120
271,1560,12896,-8120,30.51,58,214,-389
272,1456,12788,-8328,30.46,-436,-227,-99
273,1544,13196,-8448,30.46,-621,226,-411
274,1528,12980,-8332,30.41,-275,188,-557
275,1420,12780,-8416,30.51,-505,242,-567
276,1460,12844,-8496,30.55,-563,646,-656
277,1540,13284,-8200,30.46,-838,470,-754
278,1752,11888,-7084,30.37,339,870,-930
279,1904,11056,-7816,30.6,2731,836,-1935
280,540,12520,-11380,30.51,4087,3725,-3704
281,512,14344,-9532,30.51,151,2478,-3872
282,11168,15056,-7944,30.51,-1961,36,-4702
283,4540,16840,-11584,30.51,-3943,2031,-3764
284,-196,7740,-9548,30.55,-1338,3050,-836
285,-1400,10584,-5848,30.55,-2236,-641,1200
286,-1696,14276,-7752,30.51,3740,-16,2503
287,1372,14128,-11608,30.6,-439,1492,-2233
288,1644,11560,-9900,30.41,1220,1639,2448
289,2740,14164,-7840,30.51,-2118,-684,-253
290,2380,12784,-7528,30.46,-2,-1410,1090
291,1864,12836,-8256,30.46,779,-881,-328
292,884,11904,-8396,30.6,443,-1190,40
293,452,12572,-8756,30.55,343,-411,-47
294,1316,12536,-9172,30.51,-1022,-40,238
295,132,11480,-8504,30.41,808,-331,933
296,1212,12948,-8232,30.55,-1077,68,650
297,1460,12680,-9140,30.51,1387,715,1027
298,2244,12408,-8872,30.51,5,238,120
299,2108,12452,-9692,30.51,-2177,-292,-989
300,1136,13368,-8232,30.51,762,-1020,-539
301,392,11780,-9172,30.41,-400,-960,-155
302,612,12160,-8224,30.51,1192,419,1153
303,1416,12348,-9104,30.51,-1627,730,410
304,2004,13000,-8224,30.46,-846,522,-176
305,2120,12236,-9768,30.46,-1428,807,-1072
306,2144,12856,-7120,30.41,273,460,-1152
307,1220,11980,-9036,30.46,896,-424,281
308,1888,13440,-8892,30.46,-1165,-381,-971
309,1932,13368,-8060,30.46,-213,-1507,-875
310,1096,12288,-8348,30.55,1227,422,-241
311,776,12844,-8936,30.55,270,-65,-980
312,616,12748,-7660,30.51,-784,-1232,-377
313,-100,10840,-9764,30.41,1505,465,797
314,-412,12048,-9544,30.55,-2489,982,1261
315,368,12504,-10768,30.55,-2681,-143,1599
316,3488,13336,-8988,30.46,-1177,-824,-508
317,2612,12688,-9228,30.51,-2231,-255,-2589
318,2084,14060,-7904,30.46,482,-306,-1949
319,1420,10404,-6536,30.46,708,-1411,-139
320,5484,12040,-7380,30.46,-910,3742,-12162
321,-248,9452,-7296,30.55,-897,-9758,13737
322,-1068,14608,-7532,30.51,342,2938,-496
323,-1560,11696,-8576,30.6,1483,-1500,4928
324,10512,13968,-19228,30.51,-489,10241,-8343
325,4112,10300,-9008,30.51,496,-2176,6118
326,3052,12844,-9044,30.51,-1432,567,-732
327,844,13076,-8136,30.6,-2386,1439,-2698
328,1776,14048,-7412,30.55,1331,1413,-2474
329,480,11936,-8360,30.55,1042,-2655,1507
330,1076,12604,-7132,30.55,718,-1909,149
331,1292,11988,-10560,30.55,1498,-978,1244
332,-136,11236,-10380,30.37,-3,-832,2473
333,600,14152,-9708,30.6,-3852,101,-762
334,4600,12596,-9388,30.6,-10,-1057,1898
335,3080,13216,-9048,30.6,-3839,1037,-3232
336,1304,12240,-7712,30.55,-2376,-1988,-1077
337,892,13432,-6580,30.6,2107,363,-627
338,-132,12920,-8216,30.46,-595,-1901,1616
339,-44,13120,-7972,30.51,1745,494,1160
340,1516,12852,-8992,30.46,370,177,676
341,3008,14436,-7692,30.51,1852,896,-1034
342,920,11756,-9168,30.6,271,-389,526
343,1452,10836,-9788,30.55,-505,-347,-121
344,460,12232,-8180,30.65,-2830,-152,-2545
345,512,12720,-7520,30.55,-153,-205,-1544
346,116,12232,-9340,30.46,-2008,-203,-663
347,104,11824,-8560,30.55,-1427,-511,71
348,24,12128,-8680,30.6,-938,184,499
349,644,12788,-9768,30.55,-1175,-580,1244
350,1208,13308,-8248,30.55,-399,314,133
351,1696,13912,-7844,30.41,-1281,537,-227
352,1420,13096,-8204,30.51,-884,-138,-1386
353,756,13348,-8664,30.55,-231,-513,-1158
354,-420,13328,-9044,30.55,-1096,-107,-599
355,20,13188,-8492,30.46,384,-12,423
356,940,12744,-8704,30.55,-142,151,675
357,1304,12572,-8296,30.6,-1033,-538,171
358,1400,13416,-7860,30.51,-104,-803,544
359,1312,13000,-8416,30.6,-938,-209,-664
360,1420,13576,-8228,30.55,-623,-288,-759
361,1348,13372,-6704,30.46,410,196,-1283
362,936,11956,-6372,30.46,-577,19,-1168
363,-84,13640,-10896,30.51,-2052,1091,-1568
364,216,13104,-9200,30.55,42,-341,-200
365,-804,11752,-7436,30.51,842,-250,1173
366,972,12620,-8024,30.46,528,62,1086
367,720,13076,-7780,30.55,1233,1013,1069
368,624,15260,-5896,30.46,5047,-2180,3060
369,896,13240,-7108,30.55,4005,-4593,5085
370,236,12840,-10304,30.46,4019,-5427,7226
371,1268,9392,-10868,30.55,2613,-4581,7483
372,1880,8920,-11244,30.55,1790,-4465,8708
373,3348,9248,-11420,30.46,-1482,-5438,5467
374,3040,8308,-11680,30.6,-1280,279,3102
375,4000,10648,-12492,30.69,-4464,1995,822
376,6232,13364,-9804,30.51,-4028,3463,-3370
377,4212,15048,-7432,30.55,-2489,113,-5210
378,1244,14144,-6196,30.55,332,-4297,-3501
379,-2400,9760,-6944,30.51,964,-7350,2287
380,-3180,8732,-11068,30.51,404,-7625,9330
381,-508,9372,-12924,30.6,-4228,1221,3928
382,3696,11188,-13744,30.55,-4518,4853,-7052
383,6712,12540,-11228,30.6,-2705,5851,-18212
384,8592,12360,-8636,30.6,2158,1198,-7433
385,-988,15552,-3940,30.6,841,1920,-772
386,-3796,11988,-4596,30.6,4006,-7481,11283
387,-4704,11332,-9176,30.55,1033,-2787,12959
388,-1196,9264,-11276,30.51,1199,-860,9269
389,4820,9724,-15504,30.51,-2713,8432,-6115
390,7364,12336,-12764,30.55,2479,12509,-17657
391,4756,14812,-5160,30.55,-4350,2658,-7140
392,224,12876,-4944,30.55,-1425,-421,-9244
393,-3420,12092,-10212,30.55,-1803,-2020,-2323
394,-4320,11308,-11412,30.46,-7130,5170,-4929
395,4148,14556,-8872,30.55,-7927,5135,-6393
396,808,16404,-4104,30.55,-9022,2255,-7643
397,-416,13408,-2068,30.6,-6279,1214,-8458
398,-5364,14228,-1288,30.6,-3119,-2792,-4850
399,-8272,14040,-4828,30.51,-4199,-14674,846
400,-5828,15580,-1288,30.65,-1034,-348,3892
401,-3740,16784,-2552,30.51,420,191,3875
402,-376,15960,-4264,30.55,-2562,558,-501
403,-2100,15532,-2588,30.55,-978,2892,-5433
404,-5540,15464,-2760,30.51,-1020,-254,-2167
405,-5440,14612,-3640,30.55,599,793,-23
406,-3712,15720,-2780,30.6,1319,878,1091
407,-2836,15260,-3484,30.51,-652,970,2104
408,-1680,16164,-3176,30.51,-576,1286,-539
409,-2516,14852,-2184,30.6,-495,-1251,-49
410,-2956,15456,-3768,30.55,258,-1068,-363
411,-3812,14368,-3936,30.46,-1080,-1115,662
412,-3432,14464,-3684,30.6,1143,-606,2244
413,-2496,15152,-4128,30.51,-1880,451,2281
414,-1768,16224,-2944,30.51,-1713,-1900,2960
415,-1204,16136,-3204,30.6,-501,-1183,-676
416,-1876,14888,-4520,30.51,-891,-754,-2122
417,-3600,14480,-3760,30.46,-21,-737,-268
418,-3420,15084,-3236,30.55,-243,-73,954
419,-1040,15500,-3012,30.6,912,715,804
420,-1660,15260,-3776,30.6,-1076,-98,-1223
421,-2528,15540,-2296,30.51,-558,-103,-1468
422,-3196,14904,-3764,30.55,-129,-97,-151
423,-2044,15144,-1956,30.55,4007,2550,1139
424,-2068,16096,-4088,30.6,3985,2303,144
425,-2560,13968,-2268,30.41,5469,-2182,1186
426,-1056,13328,-6352,30.55,-1080,-2161,1709
427,-908,14300,-5456,30.51,-5957,-1991,-418
428,-1568,14600,-3816,30.6,-3293,-522,-543
429,-2352,15528,-2312,30.46,-3984,-2421,-206
430,-2700,15736,-2036,30.51,-1909,-1034,81
431,-2784,14676,-2512,30.55,-864,-808,2483
432,-884,16360,-2624,30.55,-1620,700,1922
433,-840,15760,-876,30.55,-1051,-723,-820
434,-1748,15772,-1992,30.55,-218,-933,-853
435,-2060,15344,-3524,30.6,-1127,-331,-1119
436,-2572,15452,-2140,30.51,8,-644,2709
437,-1308,15724,-2692,30.51,-549,-170,2471
438,-88,16300,-1612,30.51,-810,297,197
439,-860,15740,-2384,30.46,-290,-850,154
440,-1032,15536,-2412,30.55,-157,-560,978
441,-1120,15600,-2080,30.55,1018,-1092,3254
442,-1212,15984,-1740,30.65,5297,132,5127
443,1488,14924,-5300,30.51,7731,2062,4416
444,2068,15892,-3568,30.51,7680,-463,5225
445,1340,14140,-7216,30.65,3407,-1952,1797
446,900,12752,-7068,30.6,2678,539,320
447,932,16112,-6028,30.51,990,2077,-2809
448,1776,15024,-5772,30.6,-1341,411,-3397
449,1324,14164,-5816,30.51,-338,-3015,1874
450,1324,13520,-6388,30.55,-8,-1498,113
451,752,13956,-6804,30.6,-2119,-2144,502
452,300,14168,-5956,30.6,-511,-461,57
453,1268,14268,-6860,30.6,-900,86,-302
454,1128,14268,-4756,30.55,10,414,-159
455,1724,13528,-6448,30.51,-1988,-674,-562
456,624,14500,-6288,30.55,-3235,-1293,3
457,-596,13864,-4476,30.51,-657,-720,1709
458,980,14652,-5328,30.51,613,-344,2483
459,2012,14564,-6248,30.51,-682,1442,1047
460,2520,14884,-6164,30.6,-182,1116,-223
461,2032,14524,-5900,30.51,-798,21,-1082
462,820,13900,-5644,30.51,1618,677,-1479
463,1816,15448,-5052,30.51,-96,-116,-881
464,1052,14784,-6328,30.55,-172,-13,-1198
465,664,14212,-6180,30.55,302,-912,478
466,1372,14644,-6176,30.51,-245,-505,-138
467,2012,15016,-5884,30.51,-748,-1010,-296
468,1280,13700,-5700,30.65,-384,-1846,-938
469,-464,13720,-5952,30.55,220,-597,1079
470,1328,14428,-6456,30.55,-1230,233,1299
471,2964,14480,-5232,30.55,-657,153,150
472,2012,14496,-5764,30.51,-17,-846,-792
473,488,14412,-6500,30.6,-2222,-544,-1762
474,36,14416,-5004,30.51,733,-337,412
475,720,14436,-6916,30.51,-419,-309,463
476,3048,14292,-5536,30.55,322,1248,-457
477,1724,14412,-6264,30.55,-1236,-98,-1132
478,312,14432,-5288,30.55,-1229,19,-1113
479,0,14536,-5856,30.46,628,-541,807
480,1200,14936,-5008,30.55,-597,542,936
481,1808,14836,-5420,30.6,175,-823,1009
482,1660,14636,-6192,30.51,-1579,-1023,-4
483,1004,14756,-5176,30.51,651,-693,-471
484,376,13752,-6864,30.6,-257,-631,20
485,696,14064,-5528,30.51,511,-644,1273
486,776,13884,-6000,30.46,423,-174,1559
487,2924,15088,-6316,30.55,-823,1388,109
488,2432,15200,-5532,30.51,-1022,52,-1136
489,544,14288,-5736,30.51,169,-471,-212
490,1056,14324,-5840,30.55,-36,171,288
491,1704,14624,-5640,30.6,-421,278,8
492,1832,14240,-5804,30.51,-31,-319,-248
493,1532,14560,-5892,30.6,-882,-229,-776
494,1740,14720,-5816,30.6,-2070,460,-988
495,808,14388,-5708,30.55,825,-630,387
496,1228,14152,-6240,30.51,-468,1,194
497,1300,14280,-5712,30.51,70,-136,595
498,1828,14056,-5332,30.55,159,-108,168
499,1648,14252,-6060,30.51,-436,-206,-95
500,1996,14308,-5732,30.6,-21,210,-1054
501,1116,14404,-5684,30.55,-880,-539,-564
502,1380,13952,-6360,30.46,-681,-325,-882
503,1540,14404,-4968,30.55,-591,67,-1241
504,392,14492,-5932,30.51,-518,-822,-625
505,304,13996,-5396,30.6,226,-460,383
506,748,14496,-5604,30.55,128,-44,969
507,1420,14620,-5956,30.55,-440,-253,963
508,2116,14816,-5296,30.46,586,43,260
509,1312,14240,-5752,30.46,-102,-982,358
510,1192,15036,-5524,30.55,-938,-437,-42
511,2040,14524,-5516,30.51,345,-493,-705
512,1112,14620,-6516,30.51,-1073,-758,-1470
513,212,13628,-6016,30.6,-827,-343,-1069
514,-656,13388,-6016,30.51,-289,-655,1048
515,4,14224,-6488,30.6,-589,911,2296
516,10108,10668,-3604,30.51,-1092,985,1268
517,2076,14880,-6076,30.55,-68,174,711
518,2808,15668,-6376,30.51,476,1709,-85
519,6132,15668,-3020,30.46,1287,596,-4087
520,2664,14552,-1996,30.55,1309,-3300,-4503
521,-3616,13488,-6532,30.51,-2482,-6803,1338
522,232,13408,-6520,30.51,-2136,2754,-3697
523,268,13780,-7068,30.55,-1485,-1007,4276
524,3420,14400,-6836,30.46,2245,2658,1035
525,2912,15080,-5196,30.51,-971,1596,-190
526,2420,14348,-5628,30.51,-1474,-301,358
527,2092,14184,-5724,30.51,-3027,-232,600
528,1768,14676,-5108,30.6,-593,986,-471
529,3656,13328,-6536,30.46,400,-157,-1360
530,2968,12788,-8300,30.55,-2177,-754,-3225
531,308,14448,-4352,30.51,-594,3471,-6086
532,-1608,16984,-2032,30.51,143,1288,-2327
533,-1968,14648,-2976,30.51,2680,-1696,1524
534,-2524,17436,-5172,30.51,-45,-1553,3710
535,912,10660,-4176,30.6,3936,-459,2032
536,3232,19628,-6148,30.51,934,1754,166
537,1944,13956,-7064,30.6,5104,-4950,6403
538,4432,12992,-8552,30.55,-2340,-3472,599
539,1212,13632,-5940,30.6,-527,-792,-1368
540,-232,13056,-6792,30.51,-3000,-1824,32
541,1728,12032,-7996,30.51,-4026,997,704
542,2116,13964,-8796,30.55,-5627,2103,35
543,4016,10220,-8556,30.6,-3476,4003,-4222
544,2060,14040,-6568,30.46,-3356,1959,-5710
545,-1504,15476,-2364,30.51,611,249,-3881
546,-1900,14800,-3296,30.6,1586,-1229,1561
547,-412,15048,-6112,30.6,863,-885,3350
548,2948,14704,-7040,30.6,209,4344,1263
549,2916,13156,-6400,30.51,791,-1515,2097
550,2436,14332,-7144,30.51,974,-498,-146
551,2392,13280,-7984,30.46,300,294,-1821
552,604,13968,-6532,30.55,-1410,-535,-993
553,1080,15264,-6148,30.6,-2019,466,-90
554,448,14868,-6520,30.51,-95,-255,1753
555,1908,14096,-7196,30.55,-1353,1568,182
556,2856,14368,-5892,30.55,-850,-206,145
557,2172,14496,-6456,30.46,-1227,-82,-1319
558,1120,14016,-5192,30.55,-371,-1498,-106
559,648,13680,-6628,30.55,151,-1153,522
560,852,13532,-6360,30.55,-76,-789,1267
561,1848,14400,-6328,30.51,-611,-398,1201
562,1704,14596,-4164,30.51,-872,331,865
563,2204,13772,-5628,30.46,520,-1016,1345
564,1908,14836,-4308,30.55,2622,-1055,1490
565,1572,15000,-3344,30.55,3555,-5195,3907
566,2420,12788,-7088,30.51,6923,-6015,5957
567,2344,11304,-10828,30.6,4664,-5972,6470
568,3472,11200,-10064,30.46,-1899,-1901,2135
569,5012,9576,-11288,30.6,-4403,-894,913
570,2108,12588,-6204,30.6,-3507,-8,151
571,2164,14380,-8976,30.46,-1504,-905,1645
572,4220,13152,-7668,30.55,133,225,9
573,3672,14524,-6412,30.55,-2681,486,-1064
574,1636,12400,-7084,30.51,-1886,380,-1632
575,2128,13524,-6604,30.6,-1504,-1246,389
576,5172,14324,-7564,30.51,-484,1078,174
577,3300,14076,-6452,30.6,-156,-1266,-88
578,3000,13996,-7724,30.51,-848,-793,-1192
579,2508,13740,-6820,30.51,-86,-1068,-979
580,1108,13016,-7048,30.51,-213,-1104,565
581,2236,13268,-6424,30.51,553,-169,1752
582,4036,12884,-6964,30.6,-774,583,539
583,4180,14008,-6808,30.55,-1594,425,-1427
584,2636,13188,-6440,30.55,-194,20,-727
585,3916,13596,-7396,30.51,-500,-324,-872
586,3080,12976,-6408,30.51,-61,-652,-1439
587,1288,13068,-6692,30.51,84,-622,242
588,3476,13984,-6984,30.46,-563,-176,766
589,4652,13232,-6684,30.51,-156,-609,-1569
590,3116,13464,-6316,30.46,185,-1580,-2828
591,1456,12984,-7492,30.55,-131,-1340,-2210
592,344,14400,-6632,30.55,-267,-768,-581
593,1008,12908,-6668,30.46,1330,-218,830
594,452,13672,-7132,30.6,1509,-800,3486
595,2864,13628,-7044,30.55,-571,839,2656
596,4328,14976,-8792,30.51,-1587,1479,1361
597,5116,15092,-6656,30.41,-1317,1894,-2054
598,2908,13476,-6876,30.46,-1480,-70,-379
599,3492,13084,-7004,30.46,-664,382,-1958
600,1676,12684,-7096,30.46,-1164,-2222,-99
601,1188,13476,-7612,30.46,-844,-64,893
602,3768,13892,-5648,30.51,-648,348,1863
603,4372,13832,-6404,30.51,-175,-384,-205
604,3288,14220,-7140,30.51,-1272,-1326,-765
605,2460,13664,-5508,30.55,1310,-706,-1273
606,960,12676,-6524,30.55,231,-771,1081
607,3372,14100,-7324,30.51,-1280,-279,1265
608,3264,14656,-7856,30.51,-191,65,19
609,3268,13240,-7640,30.55,493,-806,96
610,3080,13928,-6852,30.51,-1738,88,-704
611,4936,15256,-5544,30.6,-705,3181,-1373
612,2772,13628,-7460,30.6,-189,-1163,-23
613,3372,13532,-6924,30.51,-934,111,-884
614,2160,12980,-6424,30.6,90,-268,-10
615,3508,13984,-6760,30.51,-1186,-211,-898
616,3112,12228,-4620,30.55,1101,-338,-1733
617,476,12156,-6608,30.55,339,-295,90
618,1332,14452,-7380,30.51,-1215,-780,2962
619,4868,14496,-4552,30.6,1333,2282,1270
620,4392,13648,-6044,30.51,-184,-710,703
621,4496,14760,-7240,30.51,-1487,748,-2140
622,5128,14312,-6404,30.41,1081,-205,-4862
623,1316,14984,-8084,30.55,-1108,-1557,-3495
624,292,9888,-6036,30.51,1950,-985,-2165
625,-2248,8376,-5440,30.46,684,-3013,3333
626,3536,3928,-3036,30.55,-4998,-6821,1040
627,4892,13208,-3528,30.55,3616,-99,1370
628,3984,12056,-6796,30.55,-2213,22,1368
629,4820,15048,-7892,30.51,-423,1106,-571
630,5288,13540,-7688,30.51,-445,2739,-3374
631,3848,11984,-6364,30.51,-269,1632,-5156
632,-604,15528,-3364,30.46,2182,-1809,-3059
633,-2504,14256,-4752,30.55,-30,-1474,1835
634,-24252,9684,-5328,30.51,6082,-11675,6837
635,3832,15100,-10668,30.46,-687,2077,295
636,2900,13792,-6492,30.37,-2118,57,-1460
637,2092,13608,-7268,30.55,24,-1491,769
638,3060,13548,-7380,30.51,-702,342,-552
639,2220,13668,-6848,30.46,-975,-581,-465
640,1936,12824,-6668,30.55,529,132,60
641,2892,13268,-7136,30.51,163,94,334
642,3004,14064,-8260,30.41,-1456,762,-987
643,2844,13736,-7928,30.51,-1955,1452,-1865
644,2196,13796,-5932,30.46,-1642,316,-1261
645,2648,13464,-7248,30.46,146,203,-149
646,3152,10756,-9516,30.6,1729,4883,-1997
647,2852,14708,-7376,30.46,2004,5552,-4095
648,2304,13448,-6900,30.55,581,4667,-5016
649,-6524,13904,-7024,30.55,-821,-1927,-4678
650,1624,15516,-6332,30.51,146,-2570,-2113
651,656,13380,-6968,30.51,1764,1147,-2142
652,1464,11004,-9040,30.51,-1809,-1058,397
653,1316,12128,-7220,30.6,1744,653,536
654,1116,13212,-7904,30.41,-776,125,750
655,2280,14480,-7412,30.55,-2280,562,-430
656,1376,13280,-6904,30.55,-670,-503,-695
657,584,13132,-7580,30.55,-315,-207,-522
658,608,14240,-6544,30.51,-2265,-642,995
659,532,12980,-6392,30.51,99,68,704
660,1104,12904,-7352,30.55,235,-702,1444
661,768,13456,-7824,30.55,-465,1046,804
662,2020,13860,-6960,30.51,738,2296,661
663,2040,13728,-7220,30.55,-266,2777,-287
664,2440,13244,-7492,30.55,-527,2498,-836
665,3460,13840,-6344,30.55,-193,966,-1146
666,2040,13884,-7312,30.55,12,1512,-1362
667,2208,13816,-7076,30.55,930,2035,-1067
668,2016,13212,-7284,30.46,1553,941,-332
669,2944,13080,-6936,30.51,2623,1271,-496
670,2516,12504,-8384,30.51,592,-656,282
671,2228,12596,-8140,30.46,-1462,-1798,600
672,2464,12280,-7932,30.55,-2392,-2041,619
673,2028,13132,-7300,30.6,-1169,-1326,948
674,2744,14500,-7436,30.6,-1030,-437,733
675,2752,12828,-8620,30.51,234,1344,-1003
676,2636,13308,-6836,30.6,-910,797,-1252
677,2292,13032,-7296,30.41,421,237,-687
678,2416,12820,-8100,30.46,-228,-301,-83
679,2216,13376,-6768,30.46,343,-963,302
680,3224,13216,-7952,30.51,1273,671,-211
681,2424,12496,-8164,30.51,15,463,-373
682,2448,12912,-8084,30.51,2565,1701,-467
683,2932,12316,-8628,30.51,1791,934,-487
684,2480,11808,-8864,30.51,-2739,-2886,411
685,3256,12800,-8040,30.51,-3344,-2495,15
686,1600,13144,-7380,30.51,239,163,-177
687,2104,13092,-8232,30.51,-135,714,64
688,2656,13200,-8048,30.55,121,322,-99
689,2548,12876,-7940,30.51,-627,-109,-168
690,2480,13004,-7984,30.51,-323,-508,-104
691,2360,13016,-7880,30.51,13,61,-141
692,2648,12916,-8248,30.51,-1013,-519,-329
693,2388,13228,-7432,30.65,622,233,-86
694,2512,12968,-8308,30.46,247,-628,79
695,2368,12748,-8136,30.51,-335,-132,-54
696,2292,12988,-7952,30.51,-131,24,-50
697,2340,12908,-8052,30.51,-164,24,-99
698,2636,12868,-8080,30.41,-144,18,-79
699,2400,12772,-8140,30.51,-329,-98,-81
700,2472,12648,-8232,30.51,-277,-271,9
701,2500,12884,-8200,30.41,-410,-364,-49
702,2600,13024,-8040,30.51,-1701,-1023,-273
703,2420,12800,-7888,30.46,-509,-763,-28
704,2348,13228,-7660,30.55,-1450,-2176,628
705,1884,12568,-8472,30.46,274,-156,-36
706,2380,13504,-7752,30.51,-955,-365,122
707,2144,12980,-7776,30.55,-299,71,-269
708,2428,12868,-7960,30.37,28,53,-90
709,2372,12936,-8208,30.51,-354,-233,-74
710,2320,12896,-7780,30.51,-449,-203,-167
711,2312,12896,-7772,30.51,-168,-80,-149
712,2128,12668,-8020,30.46,-854,-975,259
713,2532,13024,-8208,30.46,-1300,-2236,783
714,3280,13280,-7748,30.46,-1728,-3010,-205
715,2432,12908,-7832,30.46,31,-2181,-1329
716,984,12800,-8008,30.55,-634,-2294,-361
717,776,12800,-7816,30.46,216,-1995,16
718,80,12964,-7552,30.51,-595,-994,848
719,1008,13344,-7672,30.51,-587,-423,965
720,1584,13212,-7956,30.51,-382,100,923
721,2220,13412,-7644,30.55,-451,149,240
722,1952,13568,-7464,30.51,-2400,-661,-406
723,2096,13312,-7652,30.51,-405,-234,-613
724,1392,13524,-7636,30.51,-753,-867,-398
725,-36,13448,-6984,30.41,422,-490,481
726,996,13256,-7728,30.46,-1230,65,1460
727,3428,13444,-7500,30.51,-1132,798,59
728,2660,13584,-7280,30.55,-1067,-214,-821
729,2000,13840,-7024,30.51,-359,-676,-1521
730,992,13200,-7308,30.41,1445,-1164,-333
731,-132,12840,-7528,30.51,1175,-702,949
732,240,13256,-8108,30.51,34,-566,2450
733,2184,12920,-8332,30.55,-806,1318,2224
734,3372,12652,-7828,30.51,-2639,1176,1028
735,3348,14240,-7804,30.55,-5612,-2008,-500
736,2680,14384,-6160,30.41,-408,483,-2053
737,3192,13832,-6972,30.51,-17,1060,-2152
738,2920,13472,-6820,30.51,1219,111,-2961
739,2052,13100,-5752,30.51,-462,-496,-3311
740,812,14712,-6024,30.51,851,494,-6266
741,1324,12364,-7888,30.46,312,-1400,607
742,132,10388,-13540,30.46,575,10013,2125
743,1448,12464,-7928,30.55,1599,-380,4657
744,1248,13200,-8716,30.55,-1394,-195,2398
745,2568,12272,-7708,30.55,239,1420,2498
746,5172,12284,-6920,30.55,-979,1550,1951
747,4356,15292,-5996,30.55,-619,199,-368
748,3428,14244,-6624,30.6,1776,-1105,-2124
749,1792,11968,-7044,30.46,990,-2635,-32
750,1364,14972,-6664,30.46,-405,-3298,1764
751,1924,13152,-8016,30.55,1891,-4555,3439
752,2756,12548,-9040,30.51,830,-4518,2267
753,1876,11560,-9332,30.41,-529,-2465,1138
754,2504,10184,-10652,30.51,-5068,27,-13
755,3704,13844,-8396,30.6,-4800,2203,-2040
756,4144,13904,-7960,30.41,-2419,3014,-5182
757,1836,12384,-5620,30.55,-1125,1415,-6688
758,1000,13024,-5688,30.51,-3475,3684,-9088
759,1192,12808,-6252,30.46,-551,4224,3230
760,2176,12624,-7608,30.55,-233,2561,2169
761,2380,12492,-6704,30.55,1128,2824,557
762,2184,14160,-5332,30.41,1484,-871,3344
763,3732,14112,-7288,30.51,2308,-483,2463
764,4496,12676,-7904,30.6,1521,-1636,1784
765,3220,12316,-8628,30.46,217,-860,-251
766,3304,13184,-8184,30.51,253,-403,-540
767,3452,13008,-8060,30.46,-939,-810,-1018
768,3304,13488,-7668,30.51,-2802,697,-2750
769,3100,14228,-6780,30.6,-438,82,-3747
770,584,13792,-7352,30.55,-2101,1052,-4142
771,-1452,13116,-6700,30.41,-1861,668,-445
772,768,13452,-6384,30.51,-458,3056,-566
773,3752,13600,-7520,30.51,-1220,2381,-1886
774,2308,13900,-7028,30.41,369,3072,-4299
775,436,14272,-5688,30.41,1084,1733,-4851
776,320,13352,-5852,30.51,2385,965,-2101
777,32,13148,-7016,30.41,2847,-13,2647
778,-2792,14256,-6628,30.51,2463,924,2822
779,3552,13384,-7356,30.51,1653,-2006,3553
780,4308,13468,-7740,30.51,480,-2616,755
781,2824,12348,-8512,30.51,149,-4473,623
782,696,11684,-9156,30.55,-1799,-2350,1143
783,-100,13176,-8740,30.55,-2533,645,2403
784,1880,12816,-8848,30.55,-4199,1662,2139
785,2908,12892,-7460,30.51,-2096,2206,-769
786,3668,14080,-6480,30.41,-1919,2505,-2679
787,3256,13744,-6476,30.6,171,2260,-3828
788,1428,14628,-5848,30.51,-1120,-863,-2705
789,-1020,12432,-7092,30.55,2627,-1428,192
790,-208,13660,-6764,30.6,1987,-758,2929
791,2452,13600,-8092,30.41,1881,-500,2665
792,3908,12396,-8156,30.51,2035,375,499
793,2596,12856,-8272,30.55,-49,1416,-2505
794,2812,12760,-8428,30.55,1278,-640,-1182
795,2960,13404,-7872,30.46,-567,-1721,-8
796,2376,12976,-8568,30.46,-929,-3179,744
797,692,12180,-8592,30.55,-1919,-1787,420
798,84,12696,-7400,30.55,-2323,-135,1288
799,1908,13488,-7812,30.51,-904,1277,975
800,3596,13688,-8228,30.51,-346,2142,-291
801,3412,13500,-7324,30.51,-2172,315,-1715
802,2156,13760,-6972,30.51,-1667,-380,-1653
803,1360,12996,-7296,30.41,144,-1144,-252
804,256,13080,-7492,30.46,164,-1287,833
805,1088,13684,-7220,30.51,533,68,1776
806,2600,12948,-7988,30.46,1193,513,2189
807,3680,14280,-5928,30.37,645,-3370,1708
808,2716,13040,-8108,30.55,541,-1954,-563
809,2492,12168,-7984,30.55,1003,-2091,-97
810,1492,12380,-8560,30.55,-1923,-684,-632
811,1792,13492,-7844,30.46,-1272,-1183,-362
812,1716,12904,-7988,30.51,-785,-746,-969
813,420,12528,-8028,30.51,-385,-604,65
814,1188,12816,-7592,30.41,-861,684,860
815,2552,13456,-7756,30.51,-758,649,1259
816,3236,13028,-8540,30.46,-1061,1618,-794
817,2636,13600,-6976,30.55,-1446,290,-1221
818,2460,13512,-7576,30.51,-958,273,-1521
819,1796,13700,-7196,30.6,250,-279,-1264
820,1124,12996,-7808,30.51,-393,-4,-1020
821,632,13544,-7348,30.55,85,-187,298
822,1276,12960,-7520,30.46,666,-58,1250
823,2152,12652,-8424,30.51,-220,-387,1314
824,2824,13640,-7456,30.51,492,102,196
825,2084,13064,-7720,30.51,184,-51,-128
826,1784,12684,-7848,30.51,973,-654,947
827,2484,12712,-8124,30.46,1057,-120,1272
828,3388,13004,-8012,30.55,-740,-1211,607
829,2916,13060,-7932,30.46,-764,-1411,-352
830,2564,13132,-8256,30.46,-554,-1376,-1029
831,1340,12676,-8136,30.51,-530,-1236,-412
832,868,12580,-7564,30.51,-699,-774,956
833,2044,13076,-8168,30.37,-68,341,1408
834,3004,13224,-8632,30.51,-319,1276,440
835,1976,12632,-7900,30.51,-2748,1519,-605
836,5048,12564,-8544,30.51,-2752,2141,-2648
837,3988,12244,-7680,30.46,327,4267,-6737
838,2440,13532,-6044,30.46,-22,2015,-7340
839,-15260,15844,-8200,30.55,2973,-14058,1365
840,240,11028,-6592,30.51,713,-2739,3644
841,2148,11640,-9468,30.51,-1547,2446,1483
842,9424,15488,-8824,30.6,2873,-3230,3542
843,2672,12640,-8372,30.55,-641,-3094,3718
844,2608,12520,-8128,30.55,1536,-2763,2052
845,3820,12500,-9356,30.55,770,-1648,472
846,1712,12552,-9152,30.51,-592,-2799,244
847,432,11816,-9836,30.51,238,-1045,563
848,-208,12076,-8416,30.51,-3080,-270,1591
849,1520,12880,-7960,30.41,-1467,1144,1429
850,2612,13120,-8368,30.51,-739,1063,595
851,3076,13416,-7940,30.51,-2030,1654,-1167
852,2940,13152,-8436,30.51,-2640,797,-1613
853,2376,13544,-7640,30.55,-2124,102,-1840
854,1708,13688,-6928,30.55,455,759,-1473
855,1452,13592,-6924,30.55,1124,-47,-1498
856,924,13320,-7400,30.55,484,-1392,3
857,1292,12744,-7740,30.55,1149,-2029,354
858,1428,12636,-8504,30.46,324,-1552,1166
859,2452,12944,-8312,30.65,-8,-1148,39
860,1284,12888,-8484,30.51,-1156,-1323,-389
861,396,13120,-7272,30.46,-207,-244,377
862,616,12860,-7888,30.51,-752,402,839
863,1292,13064,-8060,30.65,201,-3,1935
864,2376,12748,-8520,30.51,-875,551,783
865,2172,12768,-8028,30.46,-2025,865,308
866,2712,13240,-7516,30.55,-530,1388,-64
867,3040,13612,-7916,30.51,-405,1544,-1554
868,2256,13444,-7812,30.46,-2005,192,-2292
869,584,13728,-6760,30.46,-75,29,-621
870,1472,13112,-7740,30.51,1382,-244,1159
871,2896,12348,-9292,30.46,-437,-429,580
872,2392,12840,-8192,30.46,105,-1305,735
873,2248,13332,-7136,30.51,-1671,-2030,637
874,2896,13348,-7280,30.51,-133,-922,-104
875,2072,13084,-8012,30.41,-540,-1350,-328
876,1160,13440,-7488,30.55,-357,-953,-561
877,644,12604,-8412,30.46,-84,170,152
878,1928,13364,-7596,30.55,-242,1023,670
879,3536,13632,-7792,30.46,-168,744,-710
880,2408,12896,-8808,30.46,-1246,840,-2130
881,980,13464,-7220,30.46,-813,-48,-1291
882,532,13028,-7340,30.51,721,-44,556
883,1444,13048,-8196,30.55,186,-172,1432
884,3456,13724,-7992,30.55,-860,430,-78
885,1812,13840,-6508,30.51,-897,-459,-787
886,1256,13032,-7468,30.51,814,-509,550
887,2196,12476,-8580,30.55,384,-376,1101
888,2808,13416,-7884,30.51,-1026,-1548,797
889,1760,13308,-7588,30.55,144,-277,-86
890,2140,13092,-7844,30.51,3,-756,804
891,2964,12940,-8156,30.51,-227,-531,19
892,2968,13188,-8032,30.51,-731,-1357,-835
893,1636,13092,-8136,30.51,-90,-1650,-650
894,516,12712,-7800,30.51,-567,-431,-163
895,1304,12684,-8176,30.55,-983,202,916
896,3024,13076,-7952,30.51,-857,1081,380
897,2920,13580,-7568,30.51,-1349,453,-847
898,2724,13052,-8160,30.51,-1073,1188,-2325
899,2580,13352,-7704,30.55,-1428,-298,-1924
900,1116,13052,-7688,30.46,485,-658,-896
901,1828,13384,-7736,30.55,-204,689,-1230
902,1480,13232,-7716,30.46,-1281,-223,-1221
903,464,12932,-7148,30.41,885,-165,-7
904,532,12380,-8420,30.6,-5,-326,1714
905,1452,13004,-8508,30.46,-158,1099,1879
906,2880,13676,-6612,30.46,-2965,-53,861
907,2644,13336,-6532,30.46,-957,586,64
908,3144,13960,-6684,30.55,-6,96,378
909,2604,12996,-7952,30.46,2346,599,-46
910,2668,12564,-8556,30.6,341,-345,340
911,2584,12968,-8048,30.51,294,-391,196
912,2640,12892,-8284,30.55,-553,-416,115
913,2560,13028,-7892,30.51,-316,-773,66
914,2596,13016,-8012,30.46,-967,-315,-423
915,2880,13332,-7476,30.46,-272,-506,-569
916,2676,13028,-7440,30.65,-500,-1612,-791
917,1140,12576,-7900,30.65,-94,-1075,83
918,1756,12116,-8908,30.51,-1104,132,952
919,3536,14132,-7204,30.51,-1745,455,-300
920,2948,12224,-8748,30.51,1049,1038,-1410
921,1564,13120,-7480,30.51,-1471,-435,-1118
922,1128,12756,-7816,30.55,75,64,-139
923,2420,13304,-7636,30.46,645,-98,794
924,2544,13216,-7760,30.51,-270,415,-557
925,2044,12852,-8024,30.51,-242,383,-414
926,2304,13248,-7752,30.55,-208,295,-81
927,2568,12972,-7916,30.51,-181,137,-204
928,2384,13056,-8076,30.51,-308,-172,-185
929,2348,12988,-7904,30.55,-407,-294,-118
930,2292,13064,-7908,30.46,-285,-329,34
931,2404,12944,-8040,30.51,-464,-302,-80
932,2296,12896,-8212,30.51,-720,-157,-296
933,1968,13080,-7720,30.6,-185,-401,193
934,2380,12988,-7940,30.46,-293,-142,-59
935,2468,13132,-7740,30.55,-187,-90,-159
936,2264,13000,-7784,30.51,-323,-51,-217
937,2268,13032,-7744,30.51,-319,-113,-147
938,2452,12996,-7916,30.51,-379,-83,-250
939,2332,13068,-7912,30.46,-338,-2,-380
940,2320,13008,-8012,30.51,-135,0,-194
941,2452,12972,-7756,30.55,-390,-139,-179
942,2320,12960,-7880,30.51,-197,-102,-15
943,2332,13060,-7996,30.6,-395,-227,96
944,2400,13204,-7896,30.51,-340,-324,-41
945,2208,13112,-7904,30.46,-438,-336,-67
946,2304,12960,-8036,30.46,-320,-269,-36
947,2388,12992,-8128,30.51,-419,-307,-29
948,2288,13116,-7832,30.41,-425,-219,-200
949,2236,13004,-7768,30.51,-431,-185,-255
950,2400,13084,-7996,30.41,-396,-117,-221
951,2452,13028,-7768,30.41,-469,-134,-292
952,2320,13036.¯                                                             ,,,,,
953,3748,5220,-14552,30.51,2807,-6648,34
954,2488,4572,-14756,30.46,940,-5109,-79
955,1388,3808,-14308,30.41,3653,-6249,327
956,856,2744,-15148,30.55,3053,-3368,-698
957,-240,2792,-14444,30.41,-332,-2247,51
958,672,2632,-14876,30.46,-645,-15,346
959,1808,2432,-14876,30.55,367,2111,-509
960,2156,2356,-14112,30.51,-460,5600,-1731
961,1692,2380,-14292,30.51,-1953,1629,-606
962,1860,2612,-14468,30.46,-521,-144,81
963,1836,2960,-14400,30.6,-262,-344,220
964,2256,2816,-14736,30.55,186,-636,400
965,1848,2368,-14128,30.6,-9,-342,-252
966,1736,2740,-14472,30.55,-158,-401,-223
967,916,2840,-14328,30.51,-809,76,21
968,992,2432,-14880,30.51,332,-451,522
969,204,3512,-14208,30.51,-544,-710,1274
970,1148,3096,-14596,30.46,800,-471,2031
971,2300,2240,-15080,30.6,723,-95,1693
972,2376,2044,-14612,30.55,-280,-114,973
973,1696,1776,-15360,30.51,-1478,357,-8
974,1736,2356,-14244,30.55,-1275,690,-200
975,2480,2492,-14176,30.6,88,66,322
976,2148,2228,-14412,30.51,-123,-116,-51
977,2112,1856,-14236,30.55,-474,-462,187
978,1952,2920,-14832,30.55,-1128,-1527,248
979,1980,2192,-15224,30.55,-228,165,-485
980,1216,2844,-12960,30.51,-981,-972,355
981,1368,1952,-15584,30.46,728,-1234,429
982,1456,2376,-14664,30.51,-1225,-202,-688
983,1936,2136,-14292,30.41,52,-558,25
984,1604,1996,-15008,30.51,-156,-383,-508
985,1396,2200,-14808,30.51,-506,189,-983
986,1756,2236,-14312,30.46,-431,98,-1023
987,2428,2140,-14780,30.6,-54,-166,-1151
988,1940,2404,-14532,30.51,-649,-238,-1414
989,1248,2492,-14704,30.51,-901,-264,-1779
990,1056,2648,-14604,30.51,-555,-118,-1536
991,1208,2776,-14504,30.6,-176,15,-1017
992,1268,2508,-14392,30.46,128,46,-676
993,1604,2532,-14656,30.55,-194,69,-470
994,1460,2576,-14564,30.51,-167,-95,-348
995,1396,2692,-14612,30.46,-225,-106,-196
996,1452,2612,-14692,30.46,-226,-68,49
997,1388,2544,-14772,30.55,-302,-157,209
998,1528,2384,-14564,30.55,-187,-271,290
999,1512,2372,-14648,30.51,-200,-237,497
1000,1528,2640,-14820,30.55,-484,-285,635
1001,1384,2508,-14576,30.51,-402,-363,807
1002,1588,2216,-14512,30.46,-60,-547,979
1003,1600,2012,-14572,30.6,18,-453,848
1004,1532,2012,-14808,30.51,-186,-305,731
1005,1716,2016,-14840,30.51,-590,-184,218
1006,1528,2160,-14488,30.65,-721,-237,11
1007,1608,2384,-14632,30.51,-663,-269,-123
1008,1492,2284,-14644,30.55,-391,-321,-252
1009,1480,2244,-14696,30.55,-446,-203,-384
1010,1508,2276,-14636,30.46,-445,-107,-446
1011,1448,2384,-14520,30.51,-331,-54,-446
1012,1508,2476,-14596,30.55,-291,-133,-485
1013,1524,2352,-14684,30.46,-244,-166,-417
1014,1488,2416,-14612,30.41,-280,-126,-428
1015,1504,2336,-14424,30.51,-207,-182,-463
1016,1420,2244,-14636,30.46,-350,-199,-374
1017,1504,2340,-14712,30.46,-496,-212,-379
1018,1436,2388,-14468,30.6,-413,-192,-344
1019,1608,2488,-14768,30.51,-437,-186,-211
1020,1496,2332,-14588,30.51,-375,-205,-219
1021,1444,2436,-14680,30.55,-335,-215,-162
1022,1400,2396,-14624,30.55,-318,-156,-91
1023,1420,2356,-14692,30.51,-250,-132,-41
1024,1476,2312,-14568,30.55,-246,-188,-56
1025,1444,2372,-14692,30.6,-322,-224,-86
1026,1524,2272,-14556,30.51,-290,-91,-102
1027,1528,2348,-14692,30.55,-300,-141,-146
1028,1316,2388,-14596,30.6,-492,-241,-192
1029,1484,2396,-14640,30.51,-387,-181,-107
1030,1540,2256,-14716,30.37,-363,-193,-80
1031,1616,2180,-14700,30.51,-398,-200,-135
1032,1504,2324,-14568,30.51,-425,-207,-190
1033,1428,2424,-14556,30.51,-361,-146,-188
1034,1440,2404,-14628,30.46,-319,-103,-113
1035,1544,2336,-14660,30.55,-241,-197,-114
1036,1576,2236,-14536,30.6,-452,-218,-168
1037,1628,2320,-14688,30.51,-575,-279,-246
1038,1444,2272,-14640,30.51,-443,-116,-166
1039,1508,2336,-14584,30.55,-257,-104,-84
1040,1616,2472,-14732,30.41,-438,-140,-113
1041,1448,2328,-14508,30.6,-331,-256,-167
1042,1464,2304,-14640,30.6,-339,-174,-139
1043,1532,2284,-14668,30.55,-283,-187,-161
1044,1548,2356,-14708,30.55,-332,-73,-104
1045,1488,2396,-14560,30.51,-375,-118,-140
1046,1572,2308,-14656,30.6,-357,-132,-130
1047,1584,2372,-14660,30.46,-386,-158,-124
1048,1560,2408,-14720,30.55,-397,-214,-149
1049,1524,2288,-14448,30.51,-373,-173,-161
1050,1556,2244,-14644,30.51,-339,-194,-131
1051,1592,2256,-14576,30.51,-317,-167,-91
1052,1588,2344,-14568,30.46,-471,-237,-176
1053,1580,2376,-14672,30.55,-374,-222,-179
1054,1464,2236,-14480,30.55,-443,-221,-240
1055,1540,2324,-14572,30.46,-386,-269,-195
1056,1532,2332,-14836,30.46,-391,-199,-176
1057,1420,2420,-14708,30.55,-413,-240,-157
1058,1408,2300,-14664,30.65,-351,-256,-172
1059,1424,2408,-14716,30.46,-341,-229,-157
1060,1484,2424,-14376,30.55,-317,-255,-171
1061,1516,2432,-14544,30.46,-308,-250,-158
1062,1596,2388,-14644,30.51,-242,-228,-186
1063,1516,2276,-14680,30.51,-351,-151,-105
1064,1512,2388,-14496,30.51,-340,-228,-183
1065,1452,2356,-14680,30.6,-332,-179,-163
1066,1484,2384,-14460,30.6,-375,-186,-162
1067,1528,2348,-14704,30.6,-362,-181,-145
1068,1448,2348,-14652,30.6,-345,-188,-145
1069,1524,2424,-14600,30.51,-283,-127,-94
1070,1492,2284,-14664,30.51,-256,-174,-117
1071,1460,2268,-14676,30.51,-331,-184,-152
1072,1524,2416,-14624,30.51,-273,-262,-174
1073,1540,2184,-14608,30.51,-361,-135,-104
1074,1572,2288,-14736,30.6,-620,-206,-175
1075,1452,2444,-14488,30.51,-603,-123,-122
1076,1536,2424,-14584,30.51,-433,-128,-105
1077,1620,2380,-14692,30.41,-435,-202,-142
1078,1528,2456,-14620,30.51,-494,-276,-184
1079,1536,2448,-14460,30.51,-369,-187,-87
1080,1464,2380,-14464,30.55,-250,-82,-80
1081,1576,2432,-14676,30.51,-281,-149,-135
1082,1640,2268,-14508,30.51,-232,-190,-155
1083,1456,2288,-14640,30.51,-244,-65,-61
1084,1496,2284,-14560,30.51,-264,-102,-163
1085,1596,2208,-14556,30.51,-149,-196,-123
1086,1652,2252,-14684,30.55,-483,-237,-176
1087,1556,2348,-14540,30.55,-334,-215,-161
1088,1520,2348,-14580,30.55,-393,-129,-136
1089,1660,2296,-14700,30.46,-288,-205,-152
1090,1564,2288,-14676,30.46,-416,-149,-145
1091,1660,2296,-14624,30.46,-374,-230,-141
1092,1540,2356,-14616,30.55,-381,-196,-183
1093,1504,2352,-14600,30.55,-362,-146,-164
1094,1496,2264,-14708,30.55,-350,-231,-184
1095,1464,2396,-14660,30.55,-401,-218,-171
1096,1532,2212,-14572,30.65,-342,-252,-197
1097,1504,2396,-14684,30.46,-414,-263,-194
1098,1584,2244,-14460,30.55,-482,-233,-222
1099,1508,2304,-14556,30.55,-221,-251,-279
1100,1524,2308,-14620,30.55,64,-279,-1˛                           
Sample,aX,aY,az,Temp,gX,gY,gz                                                   
1,6772,6248,-12616,30.46,6474,600,2252
2,7552,5916,-12744,30.37,907,1411,1075
3,7620,5248,-11716,30.51,242,-245,3183
4,7296,3992,-11284,30.32,1054,-1884,1345
5,8140,4756,-13884,30.32,403,-1374,520
6,6268,4968,-13072,30.41,-343,-476,-2128
7,5488,5764,-13320,30.41,1158,-371,-1307
8,5804,5928,-13304,30.46,438,790,-827
9,6380,4596,-13228,30.46,306,307,-834
10,6188,4888,-12984,30.46,-243,-514,-552
11,6264,4756,-12472,30.37,-724,-1327,426
12,6052,4720,-13276,30.41,-314,-1406,693
13,5720,5032,-13328,30.51,-640,-1169,354
14,5488,4936,-13244,30.37,-884,-1123,107
15,5288,5148,-13132,30.41,-875,-825,-33
16,5320,4768,-13252,30.51,-113,-493,436
17,5432,4368,-13260,30.46,434,358,212
18,5748,4816,-13376,30.46,-1149,421,-135
19,5992,4992,-13072,30.51,-459,-200,-366
20,5680,4676,-13056,30.41,-518,134,86
21,5980,5032,-13000,30.51,-740,59,79
22,5856,4712,-12596,30.41,-756,-434,135
23,6032,4860,-12932,30.37,-716,-601,168
24,6068,4764,-13184,30.41,-473,-616,104
25,6012,4984,-13248,30.37,-905,-330,-428
26,5596,5280,-13020,30.46,-748,-312,-615
27,5448,5444,-13100,30.32,-632,-308,-587
28,5592,5376,-12848,30.41,-312,-91,-276
29,5768,5104,-13040,30.37,26,-142,-119
30,5748,4936,-13116,30.32,-204,-243,-8
31,5684,5188,-13192,30.32,-340,-230,32
32,5728,5184,-12912,30.27,-335,-262,-20
33,5708,5240,-13160,30.32,-256,-234,-72
34,5760,5044,-13024,30.37,-229,-184,-162
35,5636,5000,-13016,30.37,-259,-158,-201
36,5828,5096,-13076,30.41,-446,-59,-304
37,5564,5100.                                                               ,,,,,