,67205,-202.7.00,237,-163,,,,
2526,328,14468,-5660,29.61,76,-35,-323,
2527,320,14700,-5348,29.52,-305,-202.7.00,237,-163
2526,328,14468,-5660,29.61,76,-35,-323,
2527,320,14700,-5348,29.52,-305,-202,,
Sample,aX,aY,az,Temp,gX,gY,gz                                                   ,
1,5952,8244,-9840,29.61,865,-2874,1958,
2,6088,8688,-10868,29.52,3199,-2412,1277,
3,7336,6280,-10600,29.66,5913,-489,1047,
4,6024,7424,-11640,29.61,5020,-2604,1060,
5,5176,6504,-12356,29.57,4993,-2204,2233,
6,6144,6076,-13492,29.61,3665,-1672,2564,
7,5072,6808,-12740,29.57,1467,-368,1118,
8,6256,5148,-12852,29.61,1036,-27,1369,
9,5204,4232,-14240,29.66,1711,766,500,
10,6316,4476,-13208,29.61,2546,-351,712,
11,6196,5456,-12596,29.57,1110,1596,-456,
12,5556,5504,-12356,29.61,1192,-750,497,
13,4896,4644,-13128,29.57,2403,-161,801,
14,4848,3888,-13900,29.61,1198,555,671,
15,5664,3912,-13860,29.61,825,696,1804,
16,6124,2808,-13348,29.66,1583,-735,2083,
17,6660,2968,-13004,29.61,798,-769,1163,
18,6752,2716,-13948,29.52,1308,-306,255,
19,5512,2120,-13708,29.57,1033,222,-867,
20,5808,3084,-13956,29.61,-523,-148,-912,
21,5740,3432,-14052,29.66,63,-42,-1110,
22,6024,1192,-12812,29.57,1659,229,-1119,
23,7428,1788,-11208,29.61,60,-2426,-1850,
24,5012,6024,-18168,29.57,-1310,-556,-3856,
25,5036,1408,-11844,29.57,1645,526,-15,
26,5852,2020,-15244,29.52,1118,146,1258,
27,5676,2180,-14132,29.57,382,-164,-644,
28,5436,2564,-14092,29.52,-1324,-267,-115,
29,5444,2676,-13592,29.61,-706,-313,78,
30,5704,2480,-13768,29.61,-734,-112,44,
31,5620,2656,-13856,29.57,-318,-400,247,
32,5588,2096,-14176,29.75,-239,-469,148,
33,5544,2100,-13924,29.71,-244,-440,48,
34,5616,2104,-13880,29.57,-220,-218,41,
35,5564,2036,-13988,29.57,-135,-179,-120,
36,5580,2224,-13932,29.52,-138,-149,-194,
37,5528,2144,-13772,29.66,-311,-77,-171,
38,5596,2244,-13656,29.61,-312,-63,-193,
39,5536,2224,-13900,29.57,-271,-122,-233,
40,5580,2284,-13952,29.52,-255,-160,-224,
41,5720,2096,-13984,29.47,-276,-210,-151,
42,5588,2064,-14076,29.61,-244,-183,-176,
43,5584,2144,-13884,29.61,-353,-131,-273,
44,5444,2152,-14084,29.66,-423,-89,-217,
45,5636,2024,-13972,29.66,-333,-126,-184,
46,5612,2172,-13864,29.57,-337,-133,-213,
47,5696,2160,-13956,29.61,-275,-139,-170,
48,5664,2088,-13952,29.47,-323,-192,-126,
49,5692,2172,-13704,29.66,-399,-169,-178,
50,5676,2064,-13764,29.52,-335,-242,-166,
51,5688,2068,-13812,29.57,-306,-203,-208,
52,5596,2048,-13964,29.61,-351,-191,-180,
53,5596,2088,-13836,29.57,-363,-181,-278,
54,5636,2096,-13836,29.61,-348,-149,-244,
55,5628,2064,-14008,29.57,-320,-164,-175,
56,5584,2048,-13816,29.66,-237,-149,-184,
57,5728,2016,-13924,29.61,-323,-175,-194,
58,5632,1972,-13740,29.57,-212,-166,-219,
59,5700,1952,-13908,29.52,-396,-222,-19˘                         ,
Sample,aX,aY,az,Temp,gX,gY,gz                                                   ,
1,5560,2128,-13816,29.57,-375,-139,-190,
2,5576,2100,-13960,29.61,-284,-185,-160,
3,5540,2128,-13960,29.66,-295,-188,-261,
4,5568,2116,-14020,29.57,-307,-144,-178,
5,5580,2148,-13932,29.61,-339,-181,-154,
6,5652,2156,-13820,29.66,-247,-130,-79,
7,5736,2136,-13980,29.66,-262,-139,-62,
8,5680,1968,-13996,29.61,-284,-191,-89,
9,5584,2052,-14068,29.52,-331,-203,-153,
10,5672,2132,-14000,29.66,-370,-193,-142,
11,5472,2100,-13884,29.61,-422,-188,-174,
12,5652,2100,-13844,29.57,-348,-189,-140,
13,5536,2024,-13932,29.61,-353,-218,-131,
14,5548,2012,-13808,29.66,-354,-168,-154,
15,5544,2132,-13876,29.57,-314,-154,-150,
16,5636,2036,-13832,29.52,-412,-193,-72,
17,5620,2120,-13812,29.47,-417,-229,-173,
18,5600,2112,-13912,29.61,-367,-175,-155,
19,5576,2076,-13904,29.66,-377,-152,-104,
20,5560,2008,-13712,29.57,-359,-197,-94,
21,5560,2148,-14016,29.66,-423,-226,-146,
22,5580,2016,-13932,29.66,-368,-149,-155,
23,5592,2108,-13896,29.61,-432,-189,-179,
24,5568,1984,-13868,29.57,-354,-207,-141,
25,5476,2020,-13956,29.57,-353,-189,-148,
26,5692,2080,-13808,29.61,-380,-158,-153,
27,5596,2216,-13908,29.57,-276,-169,-108,
28,5560,2016,-13932,29.61,-361,-186,-90,
29,5584,2036,-13720,29.38,-377,-228,-201,
30,5624,1984,-13784,29.61,-392,-165,-145,
31,5640,2088,-14068,29.52,-369,-223,-153,
32,5668,2044,-13872,29.57,-416,-213,-164,
33,5588,2084,-13952,29.61,-417,-248,-217,
34,5704,2116,-13920,29.57,-435,-202,-157,
35,5608,2084,-13808,29.66,-369,-238,-139,
36,5600,2104,-14052,29.61,-433,-237,-189,
37,5592,2168,-13932,29.57,-387,-203,-171,
38,5596,2100,-13928,29.66,-356,-197,-170,
39,5608,2008,-13828,29.61,-320,-220,-154,
40,5560,2144,-13872,29.57,-409,-206,-212,
41,5532,2144,-13796,29.61,-367,-195,-198,
42,5548,2084,-13892,29.66,-333,-150,-77,
43,5592,2088,-13756,29.61,-320,-164,-136,
44,5612,2128,-13920,29.66,-394,-198,-190,
45,5612,2104,-13864,29.57,-394,-199,-132,
46,5524,2108,-13836,29.61,-385,-166,-188,
47,5524,2168,-13932,29.66,-364,-166,-163,
48,5576,2080,-13924,29.61,-342,-198,-103,
49,5592,2100,-13964,29.61,-370,-213,-151,
50,5540,2160,-13716,29.57,-306,-157,-117,
51,5560,2048,-13888,29.52,-445,-209,-173,
52,5512,2116,-13964,29.57,-384,-160,-171,
53,5532,2136,-13904,29.57,-321,-149,-76,
54,5600,2012,-13908,29.57,-315,-196,-155,
55,5600,2068,-13936,29.57,-392,-194,-161,
56,5656,2112,-13904,29.52,-351,-175,-122,
57,5620,2140,-13856,29.57,-367,-177,-166,
58,5584,2132,-13952,29.47,-361,-161,-166,
59,5660,2136,-13808,29.61,-313,-164,-124,
60,5580,2148,-13948,29.57,-350,-185,-127,
61,5568,2032,-13880,29.52,-301,-207,-125,
62,5664,2060,-13908,29.57,-423,-188,-128,
63,5588,2168,-13860,29.66,-340,-211,-134,
64,5568,2104,-13960,29.61,-306,-157,-114,
65,5596,2080,-13892,29.57,-364,-200,-130,
66,5592,2088,-13924,29.61,-377,-154,-131,
67,5620,2052,-13792,29.57,-357,-204,-190,
68,5568,2140,-13908,29.61,-356,-161,-120,
69,5632,2116,-13856,29.61,-353,-180,-171,
70,5568,2128,-13912,29.66,-380,-176,-137,
71,5624,2092,-13836,29.61,-342,-193,-173,
72,5532,2028,-13896,29.57,-343,-213,-180,
73,5704,2196,-14048,29.61,-318,-180,-161,
74,5612,2100,-13776,29.57,-412,-203,-194,
75,5584,2120,-13972,29.57,-337,-175,-151,
76,5628,1996,-13976,29.61,-396,-137,-170,
77,5580,2032,-13764,29.66,-329,-172,-186,
78,5660,2120,-13944,29.52,-428,-199,-248,
79,5656,2064,-13984,29.61,-398,-240,-210,
80,5552,2080,-13980,29.66,-371,-220,-206,
81,5556,2156,-13948,29.61,-370,-218,-190,
82,5680,2160,-13852,29.57,-373,-207,-191,
83,5588,2064,-13784,29.57,-407,-234,-230,
84,5620,2068,-14044,29.61,-399,-227,-216,
85,5512,2100,-13996,29.57,-328,-227,-181,
86,5628,2140,-13768,29.61,-450,-247,-211,
87,5504,2152,-13872,29.61,-342,-167,-199,
88,5580,2292,-13904,29.57,-360,-167,-153,
89,5592,2060,-13896,29.61,-319,-212,-198,
90,5620,2132,-13900,29.61,-381,-163,-181,
91,5580,2224,-13796,29.57,-364,-188,-226,
92,5580,2048,-13856,29.61,-365,-168,-199,
93,5640,2100,-13992,29.57,-357,-170,-172,
94,5604,2228,-13996,29.57,-377,-181,-188,
95,5560,2160,-13892,29.61,-323,-174,-209,
96,5660,2132,-13832,29.57,-353,-164,-190,
97,5632,2160,-13948,29.61,-342,-191,-171,
98,5624,2088,-13968,29.52,-403,-222,-166,
99,5616,2152,-13948,29.66,-331,-173,-132,
100,5716,2160,-13940,29.61,-353,-173,-165,
101,5492,2128,-13740,29.57,-380,-177,-220,
102,5612,2132,-13788,29.57,-383,-184,-229,
103,5664,2172,-14020,29.61,-357,-179,-215,
104,5576,2196,-13904,29.61,-315,-158,-207,
105,5596,2208,-13912,29.57,-333,-165,-143,
106,5544,2204,-13956,29.57,-341,-188,-197,
107,5564,2176,-13892,29.66,-321,-169,-135,
108,5528,2120,-13896,29.61,-329,-192,-177,
109,5668,2204,-13884,29.61,-287,-181,-156,
110,5576,2168,-13924,29.66,-403,-226,-156,
111,5524,2208,-13792,29.57,-324,-173,-149,
112,5660,2176,-13852,29.57,-342,-137,-124,
113,5660,2128,-13600,29.57,-308,-175,-134,
114,5600,2172,-13800,29.66,-401,-196,-149,
115,5568,2116,-13932,29.61,-356,-183,-150,
116,5616,2232,-13976,29.61,-356,-200,-133,
117,5704,2060,-13960,29.61,-345,-205,-156,
118,5552,2052,-13864,29.57,-359,-177,-149,
119,5560,2084,-13896,29.66,-399,-205,-151,
120,5584,2116,-13900,29.57,-393,-185,-166,
121,5616,2084,-13904,29.57,-303,-192,-154,
122,5656,2168,-13924,29.61,-431,-191,-198,
123,5588,2136,-13848,29.71,-399,-173,-169,
124,5588,2168,-13892,29.61,-350,-172,-147,
125,5564,2200,-13896,29.66,-357,-242,-205,
126,5572,2228,-13924,29.66,-382,-186,-167,
127,5560,2204,-13956,29.71,-379,-232,-195,
128,5600,2132,-13916,29.71,-353,-215,-186,
129,5624,2176,-13932,29.61,-392,-201,-185,
130,5580,2096,-13716,29.57,-372,-228,-194,
131,5500,2148,-13848,29.66,-381,-201,-146,
132,5500,2216,-13932,29.71,-367,-195,-188,
133,5564,2196,-13872,29.66,-331,-208,-159,
134,5588,2216,-13892,29.57,-425,-176,-150,
135,5556,2196,-13888,29.57,-411,-226,-150,
136,5504,2240,-13996,29.75,-344,-173,-149,
137,5552,2160,-13796,29.61,-339,-187,-220,
138,5592,2220,-13784,29.61,-373,-145,-159,
139,5572,2148.¸                                                              ,,,,,,
140,5524,2092,-13916,29.61,-305,-173,-142,
141,5628,1972,-13888,29.61,-441,-166,-169,
142,5616,2072,-13772,29.66,-403,-229,-194,
143,5640,2228,-13744,29.71,-376,-172,-180,
144,5560,2120,-13828,29.75,-378,-241,-188,
145,5508,2100,-13992,29.66,-337,-202,-133,
146,5500,2200,-13752,29.61,-415,-205,-222,
147,5464,2240,-14120,29.57,-396,-214,-211,
148,5500,2120,-14032,29.61,-318,-210,-171,
149,5500,2244,-14032,29.66,-317,-209,-159,
150,5612,2152,-14020,29.71,-289,-160,-95,
151,5576,2160,-13976,29.66,-286,-146,-112,
152,5584,2140,-13860,29.66,-313,-140,-149,
153,5680,2172,-13944,29.57,-362,-142,-130,
154,5512,2004,-13960,29.71,-350,-192,-139,
155,5516,2184,-13924,29.71,-390,-182,-181,
156,5548,2216,-13884,29.66,-348,-149,-126,
157,5544,2076,-13976,29.71,-358,-141,-91,
158,5564,2136,-13796,29.66,-299,-186,-182,
159,5612,2036,-13968,29.61,-310,-198,-223,
160,5560,2208,-13908,29.66,-447,-262,-194,
161,5388,2148,-14116,29.71,-396,-254,-236,
162,5512,2140,-13832,29.66,-355,-133,-37,
163,5584,2120,-13836,29.71,-395,-170,-120,
164,5516,2148,-13828,29.71,-319,-121,-109,
165,5772,2080,-13972,29.66,-397,-97,-63,
166,5528,2052,-13948,29.66,-307,-281,-192,
167,5476,2088,-13944,29.71,-288,-146,-147,
168,5468,2120,-13896,29.66,-365,-143,-171,
169,5572,1996,-13868,29.66,-286,-219,-148,
170,5588,2132,-13868,29.75,-339,-173,-175,
171,5688,2060,-13904,29.75,-264,-122,-64,
172,5376,2048,-13816,29.61,-175,-396,-65,
173,5672,2100,-13900,29.75,-473,-201,-189,
174,5552,2108,-13948,29.61,-459,-223,-176,
175,5604,2096,-13816,29.66,-307,-104,-76,
176,5720,2136,-13976,29.71,-435,-225,-47,
177,5572,1992,-13700,29.75,-440,-398,-403,
178,5600,2196,-13820,29.61,-273,-71,-79,
179,5556,2096,-14064,29.66,-439,-209,-163,
180,5568,2104,-13912,29.71,-386,-163,-174,
181,5624,2088,-13892,29.75,-217,-10,-40,
182,5624,2092,-13984,29.61,-329,-214,-205,
183,5584,1996,-14040,29.57,-358,-42,-159,
184,5768,2000,-13840,29.61,-275,-146,-191,
185,5576,2040,-13844,29.71,-377,-156,-359,
186,5444,2156,-13968,29.66,-242,-19,-118,
187,5496,2080,-13896,29.66,-456,-118,-172,
188,5648,1980,-13832,29.57,-322,-56,-83,
189,5732,2048,-13976,29.71,-284,-140,-185,
190,5640,1960,-13880,29.75,-363,-183,-196,
191,5556,2136,-13856,29.71,-294,-113,-254,
192,5740,2020,-13924,29.66,-308,-113,-176,
193,5608,2024,-13772,29.66,-430,-207,-331,
194,5560,2060,-13792,29.71,-226,-78,-198,
195,5736,2048,-13992,29.75,-339,-149,-159,
196,5664,1968,-13820,29.71,-429,-222,-159,
197,5644,1996,-13772,29.66,-492,-259,-231,
198,5632,2096,-13900,29.71,-481,-287,-294,
199,5684,2116,-13988,29.61,-486,-244,-175,
200,5644,2164,-13780,29.66,-443,-234,-202,
201,5528,2236,-13840,29.71,-361,-201,-215,
202,5716,2168,-14040,29.71,-379,-184,-154,
203,5688,2144,-13812,29.75,-429,-243,-232,
204,5656,2160,-13820,29.71,-421,-200,-178,
205,5596,2184,-13800,29.66,-449,-204,-173,
206,5580,2228,-14064,29.66,-460,-176,-215,
207,5624,2164,-13932,29.66,-413,-198,-171,
208,5544,2196,-13896,29.66,-375,-252,-200,
209,5656,2240,-13876,29.71,-352,-189,-217,
210,5648,2176,-13860,29.66,-438,-218,-261,
211,5536,2228,-13828,29.66,-398,-203,-239,
212,5620,2224,-13928,29.61,-339,-166,-162,
213,5536,2304,-13812,29.75,-323,-191,-185,
214,5620,2216,-13920,29.71,-390,-196,-189,
215,5544,2196,-13696,29.71,-375,-179,-175,
216,5596,2164,-13984,29.66,-375,-185,-197,
217,5532,2332,-13824,29.71,-369,-146,-165,
218,5568,2312,-14004,29.66,-360,-158,-164,
219,5584,2172,-13936,29.71,-337,-174,-177,
220,5704,2228,-13788,29.66,-383,-181,-165,
221,5460,2228,-13860,29.71,-393,-213,-205,
222,5536,2112,-13928,29.71,-304,-157,-100,
223,5612,2196,-13868,29.66,-391,-177,-129,
224,5720,2208,-13936,29.71,-393,-197,-162,
225,5524,2244,-13964,29.66,-353,-191,-126,
226,5516,2232,-13812,29.71,-388,-198,-158,
227,5640,2288,-13888,29.66,-385,-184,-133,
228,5720,2168,-13880,29.71,-355,-153,-105,
229,5524,2272,-13948,29.66,-325,-183,-158,
230,5656,2156,-13844,29.66,-338,-166,-89,
231,5596,2184,-13796,29.66,-417,-167,-158,
232,5648,2320,-14068,29.71,-362,-181,-166,
233,5704,2216,-13936,29.71,-337,-106,-124,
234,5472,2196,-13952,29.75,-317,-172,-126,
235,5604,2224,-13808,29.71,-415,-237,-163,
236,5604,2232,-13728,29.66,-431,-249,-169,
237,5656,2212,-13776,29.8,-384,-180,-115,
238,5496,2164,-13904,29.71,-347,-120,-79,
239,5672,2232,-13892,29.75,-367,-156,-111,
240,5632,2196,-13664,29.71,-353,-213,-187,
241,5596,2204,-13820,29.71,-448,-203,-134,
242,5588,2316,-13736,29.75,-328,-219,-175,
243,5608,2236,-13904,29.75,-340,-122,-157,
244,5712,2144,-13932,29.75,-384,-166,-201,
245,5552,2192,-13876,29.71,-339,-159,-178,
246,5620,2216,-13900,29.71,-390,-194,-201,
247,5736,2108,-13820,29.71,-395,-183,-203,
248,5620,2268,-13800,29.66,-316,-177,-180,
249,5580,2216,-13868,29.75,-314,-184,-241,
250,5500,2284,-13856,29.75,-343,-186,-228,
251,5572,2256,-13832,29.71,-326,-224,-288,
252,5592,2208,-13876,29.71,-383,-190,-195,
253,5556,2320,-13808,29.75,-401,-221,-256,
254,5560,2296,-13932,29.75,-367,-193,-246,
255,5628,2240,-13728,29.66,-361,-182,-194,
256,5572,2156,-13824,29.8,-385,-188,-222,
257,5544,2296,-13736,29.8,-387,-234,-176,
258,5572,2328,-13780,29.71,-377,-224,-193,
259,5620,2308,-13944,29.75,-367,-213,-175,
260,5568,2308,-13876,29.75,-390,-196,-156,
261,5468,2296,-13796,29.71,-362,-224,-172,
262,5548,2232,-13876,29.8,-342,-170,-128,
263,5468,2308,-13764,29.71,-312,-185,-115,
264,5652,2244,-13848,29.75,-376,-182,-130,
265,5548,2280,-13852,29.75,-349,-176,-153,
266,5512,2288,-13772,29.8,-388,-138,-109,
267,5516,2404,-13892,29.71,-331,-186,-133,
268,5548,2288,-13824,29.75,-363,-192,-116,
269,5504,2284,-13844,29.75,-348,-196,-143,
270,5616,2304,-13988,29.71,-385,-172,-160,
271,5500,2260,-13792,29.71,-371,-186,-143,
272,5580,2328,-13764,29.66,-372,-176,-155,
273,5528,2312,-13828,29.75,-377,-194,-185,
274,5608,2244,-13932,29.8,-296,-182,-123,
275,5660,2252,-13912,29.71,-404,-176,-124,
276,5556,2324,-13816,29.8,-396,-214,-154,
277,5532,2288,-13876,29.66,-300,-164,-121,
278,5508,2264,-13852,29.75,-314,-154,-100,
279,5644,2264,-13848,29.71,-326,-128,-116,
280,5556,2264,-13776,29.8,-371,-193,-150,
281,5492,2340,-13836,29.75,-387,-185,-127,
282,5588,2236,-13928,29.75,-386,-175,-159,
283,5620,2316,-13852,29.75,-395,-184,-154,
284,5540,2352,-13860,29.8,-389,-166,-137,
285,5596,2280,-13860,29.71,-357,-196,-117,
286,5656,2252,-13900,29.8,-383,-213,-156,
287,5636,2236,-13748,29.75,-311,-165,-189,
288,5728,2200,-13808,29.85,-407,-194,-124,
289,5500,2280,-13768,29.8,-425,-207,-177,
290,5524,2224,-13952,29.8,-358,-169,-145,
291,5600,2180,-13832,29.75,-393,-198,-137,
292,5556,2224,-13848,29.75,-370,-179,-156,
293,5520,2296,-13768,29.75,-416,-225,-190,
294,5496,2308,-13752,29.75,-372,-195,-135,
295,5536,2276,-13860,29.71,-350,-220,-156,
296,5588,2340,-13848,29.8,-384,-202,-196,
297,5548,2296,-14028,29.71,-385,-198,-106,
298,5464,2280,-13900,29.75,-360,-197,-119,
299,5556,2272,-13884,29.85,-346,-164,-99,
300,5476,2236,-13836,29.8,-294,-161,-139,
301,5600,2288,-13800,29.75,-370,-160,-107,
302,5528,2288,-13840,29.75,-398,-179,-162,
303,5536,2436,-13972,29.8,-338,-167,-77,
304,5608,2224,-13824,29.8,-390,-180,-144,
305,5452,2320,-13800,29.85,-341,-164,-128,
306,5464,2292,-13852,29.75,-412,-198,-157,
307,5524,2284,-13924,29.75,-413,-211,-193,
308,5460,2336,-13856,29.8,-389,-176,-130,
309,5584,2324,-13936,29.75,-417,-187,-180,
310,5544,2304,-13868,29.75,-394,-174,-138,
311,5624,2212,-13664,29.85,-370,-255,-119,
312,5600,2332,-13868,29.8,-486,-253,-185,
313,5532,2340,-13756,29.8,-334,-183,-131,
314,5680,2284,-13812,29.8,-446,-213,-121,
315,5480,2360,-13824,29.85,-487,-235,-161,
316,5508,2372,-13824,29.75,-448,-224,-145,
317,5548,2360,-13820,29.8,-314,-176,-103,
318,5596,2320,-13812,29.8,-359,-217,-135,
319,5604,2364,-13880,29.85,-395,-243,-196,
320,5544,2300,-13884,29.85,-346,-168,-102,
321,5504,2288,-13912,29.8,-317,-182,-119,
322,5632,2428,-13928,29.8,-356,-148,-131,
323,5644,2396,-13840,29.85,-382,-175,-171,
324,5504,2296,-13864,29.75,-376,-163,-154,
325,5468,2384,-13928,29.89,-348,-187,-176,
326,5512,2372,-13848,29.8,-448,-227,-155,
327,5484,2432,-13932,29.75,-454,-228,-175,
328,5620,2476,-13836,29.75,-435,-184,-124,
329,5572,2428,-13968,29.85,-401,-234,-162,
330,5548,2488,-13912,29.8,-385,-250,-184,
331,5548,2436,-13600,29.8,-389,-225,-199,
332,5512,2464,-13792,29.71,-399,-213,-190,
333,5556,2408,-13836,29.75,-333,-193,-166,
334,5524,2412,-13832,29.75,-304,-200,-139,
335,5616,2468,-13976,29.85,-334,-186,-157,
336,5512,2456,-13688,29.8,-344,-195,-181,
337,5512,2500,-13908,29.8,-275,-185,-196,
338,5608,2336,-14000,29.89,-405,-187,-123,
339,5388,2368,-13836,29.75,-397,-171,-125,
340,5540,2464,-14008,29.75,-378,-154,-132,
341,5500,2440,-13616,29.85,-336,-199,-153,
342,5500,2428,-13876,29.8,-382,-166,-131,
343,5528,2456,-13800,29.8,-428,-203,-164,
344,5496,2392,-13876,29.8,-356,-181,-154,
345,5376,2448,-13904,29.8,-371,-188,-177,
346,5448,2376,-13760,29.75,-347,-169,-126,
347,5624,2416,-13824,29.85,-335,-176,-148,
348,5500,2504,-13892,29.75,-274,-172,-110,
349,5436,2384,-13964,29.75,-366,-185,-130,
350,5472,2452,-13816,29.75,-369,-181,-116,
351,5448,2444,-13868,29.8,-343,-162,-98,
352,5516,2400,-13740,29.75,-319,-149,-93,
353,5612,2420,-13840,29.75,-379,-189,-148,
354,5612,2376,-13868,29.89,-285,-204,-118,
355,5548,2380,-13820,29.8,-355,-172,-154,
356,5528,2372,-13864,29.8,-387,-164,-107,
357,5556,2408,-13852,29.85,-459,-211,-190,
358,5496,2420,-13792,29.75,-315,-156,-116,
359,5584,2344,-13940,29.75,-403,-225,-146,
360,5500,2420,-13936,29.8,-496,-177,-204,
361,5488,2484,-13656,29.89,-397,-208,-163,
362,5456,2476,-13904,29.8,-334,-142,-67,
363,5556,2368,-13800,29.75,-369,-191,-153,
364,5560,2420,-13964,29.71,-344,-202,-131,
365,5568,2424,-13864,29.8,-332,-209,-171,
366,5504,2412,-13980,29.8,-317,-183,-172,
367,5532,2388,-13872,29.85,-306,-142,-140,
368,5548,2332,-13912,29.85,-353,-200,-148,
369,5652,2324,-13956,29.8,-330,-153,-169,
370,5460,2400,-13956,29.8,-340,-180,-65,
371,5472,2360,-13800,29.85,-331,-160,-109,
372,5456,2392,-13936,29.85,-410,-141,-166,
373,5624,2404,-13892,29.85,-409,-183,-135,
374,5580,2388,-13860,29.75,-333,-172,-104,
375,5580,2500,-13888,29.89,-367,-190,-126,
376,5480,2420,-13948,29.8,-351,-191,-158,
377,5588,2424,-14008,29.8,-371,-144,-148,
378,5472,2472,-13852,29.75,-372,-196,-180,
379,5468,2360,-13912,29.75,-306,-128,-70,
380,5516,2448,-13888,29.75,-325,-139,-132,
381,5564,2364,-14068,29.8,-364,-161,-119,
382,5444,2324,-13716,29.8,-413,-208,-173,
383,5580,2444,-13824,29.8,-340,-183,-155,
384,5588,2420,-13984,29.75,-363,-120,-108,
385,5576,2344,-13856,29.75,-276,-184,-130,
386,5472,2416,-13980,29.75,-297,-135,-75,
387,5696,2368,-13916,29.8,-250,-146,-71,
388,5568,2344,-13832,29.75,-443,-233,-236,
389,5504,2340,-13844,29.75,-486,-168,-170,
390,5532,2380,-13792,29.85,-326,-212,-196,
391,5548,2408,-13920,29.89,-332,-121,-88,
392,5520,2452,-13840,29.85,-296,-143,-76,
393,5516,2324,-13960,29.85,-462,-160,-143,
394,5580,2360,-13796,29.8,-411,-213,-140,
395,5476,2512,-13920,29.8,-311,-104,-109,
396,5580,2412,-13760,29.8,-342,-217,-164,
397,5608,2400,-13792,29.85,-349,-199,-98,
398,5460,2408,-13916,29.85,-392,-194,-171,
399,5568,2344,-13840,29.8,-386,-175,-164,
400,5592,2312,-13752,29.89,-281,-143,-85,
401,5584,2372,-13712,29.75,-368,-172,-144,
402,5676,2468,-13980,29.75,-408,-170,-117,
403,5600,2404,-13860,29.75,-306,-186,-144,
404,5512,2300,-13856,29.85,-413,-163,-126,
405,5436,2500,-13800,29.85,-233,-252,-81,
406,5576,2420,-13944,29.89,-406,-205,-149,
407,5568,2452,-13864,29.8,-323,-205,-160,
408,5660,2420,-13956,29.8,-378,-147,-118,
409,5416,2384,-13840,29.8,-315,-153,-108,
410,5560,2424,-13960,29.8,-389,-173,-143,
411,5612,2328,-13896,29.75,-322,-174,-134,
412,5560,2296,-13968,29.75,-413,-193,-207,
413,5676,2324,-13880,29.85,-426,-216,-186,
414,5636,2376,-13756,29.85,-358,-175,-210,
415,5604,2320,-13908,29.89,-466,-204,-171,
416,5584,2536,-13908,29.89,-436,-197,-202,
417,5524,2456,-13916,29.85,-353,-208,-212,
418,5500,2488,-14032,29.85,-375,-237,-192,
419,5556,2492,-13964,29.75,-397,-226,-120,
420,5492,2504,-13944,29.85,-414,-254,-217,
421,5488,2472,-13888,29.8,-358,-199,-175,
422,5452,2488,-13864,29.89,-394,-220,-173,
423,5588,2452,-13700,29.89,-390,-201,-179,
424,5512,2340,-13820,29.85,-364,-209,-196,
425,5556,2432,-13988,29.85,-321,-198,-166,
426,5616,2500,-13924,29.8,-363,-172,-132,
427,5464,2476,-13912,29.8,-264,-108,-93,
428,5524,2364,-13852,29.85,-314,-103,-68,
429,5604,2364,-13720,29.89,-305,-162,-111,
430,5496,2320,-13784,29.8,-405,-217,-152,
431,5476,2416,-13792,29.71,-400,-209,-131,
432,5548,2528,-13852,29.85,-349,-150,-147,
433,5500,2492,-13792,29.85,-371,-151,-108,
434,5524,2308,-13852,29.85,-373,-159,-105,
435,5572,2424,-13848,29.89,-341,-190,-144,
436,5584,2392,-13948,29.8,-408,-162,-137,
437,5596,2392,-13736,29.85,-425,-221,-150,
438,5548,2496,-13812,29.85,-357,-156,-151,
439,5540,2404,-13756,29.75,-363,-151,-88,
440,5532,2344,-13860,29.75,-359,-143,-79,
441,5572,2376,-13796,29.89,-401,-221,-175,
442,5560,2324,-13848,29.8,-356,-197,-179,
443,5600,2432,-13676,29.85,-335,-141,-157,
444,5588,2520,-13704,29.85,-358,-172,-139,
445,5504,2420,-13776,29.85,-355,-185,-151,
446,5728,2388,-13684,29.89,-305,-180,-145,
447,5552,2528,-13872,29.89,-424,-194,-139,
448,5468,2440,-13796,29.8,-351,-184,-174,
449,5552,2368,-13912,29.85,-319,-149,-103,
450,5644,2464,-13840,29.85,-294,-208,-159,
451,5636,2440,-13780,29.85,-428,-176,-124,
452,5564,2376,-13952,29.89,-352,-225,-168,
453,5508,2492,-13704,29.89,-341,-191,-131,
454,5500,2492,-13876,29.89,-334,-201,-137,
455,5512,2424,-13796,29.8,-366,-164,-105,
456,5536,2420,-13844,29.94,-358,-191,-103,
457,5504,2436,-13824,29.94,-337,-192,-111,
458,5556,2476,-13904,29.85,-394,-173,-116,
459,5480,2480,-14036,29.89,-330,-154,-130,
460,5576,2504,-13888,29.89,-351,-154,-105,
461,5508,2400,-13904,29.85,-302,-182,-131,
462,5608,2420,-13932,29.94,-373,-173,-114,
463,5564,2416,-13900,29.85,-372,-182,-189,
464,5512,2476,-13948,29.85,-410,-189,-124,
465,5536,2484,-13784,29.94,-348,-180,-142,
466,5548,2408,-13832,29.89,-355,-164,-133,
467,5548,2456,-13924,29.89,-399,-181,-110,
468,5560,2360,-13768,29.94,-329,-165,-138,
469,5536,2416,-13776,29.85,-370,-201,-149,
470,5468,2492,-13716,29.94,-459,-236,-210,
471,5448,2524,-13876,29.89,-389,-186,-189,
472,5592,2460,-13764,29.89,-373,-208,-118,
473,5588,2488,-13824,29.94,-353,-226,-219,
474,5536,2500,-13764,29.85,-396,-219,-182,
475,5500,2488,-13824,29.85,-359,-200,-158,
476,5524,2412,-13964,29.8,-332,-166,-90,
477,5484,2532,-13956,29.89,-330,-190,-191,
478,5528,2528,-13808,29.85,-283,-197,-106,
479,5504,2480,-13780,29.85,-325,-148,-101,
480,5608,2460,-13896,29.89,-324,-187,-120,
481,5612,2448,-13948,29.89,-290,-169,-81,
482,5492,2464,-13772,29.94,-355,-163,-147,
483,5444,2532,-13884,29.85,-363,-153,-133,
484,5476,2424,-13892,29.85,-411,-212,-149,
485,5580,2444,-13788,29.89,-281,-216,-146,
486,5456,2452,-13940,29.89,-271,-125,-136,
487,5676,2392,-13756,29.94,-322,-153,-157,
488,5568,2400,-13928,29.85,-436,-215,-187,
489,5452,2712,-13912,29.85,-307,-122,-72,
490,5608,2448,-13712,29.89,-377,-205,-157,
491,5644,2292,-13932,29.89,-198,-233,-106,
492,5472,2348,-13920,29.94,-353,-115,-117,
493,5588,2388,-13868,29.94,-296,-151,-92,
494,5680,2356,-13868,29.89,-384,-129,-102,
495,5592,2520,-13880,29.94,-374,-157,-138,
496,5548,2456,-13764,29.94,-314,-118,-89,
497,5600,2284,-13936,29.8,-410,-224,-176,
498,5532,2528,-13736,29.85,-243,-97,-72,
499,5696,2324,-13800,29.85,-464,-202,-178,
500,5596,2448,-13800,29.89,-400,-172,-121,
501,5508,2376,-13788,29.89,-426,-206,-162,
502,5556,2360,-13824,29.8,-422,-180,-111,
503,5636,2332,-13748,29.8,-396,-190,-89,
504,5580,2396,-13876,29.85,-442,-196,-178,
505,5500,2448,-13880,29.94,-403,-214,-141,
506,5596,2344,-13804,29.8,-282,-162,-122,
507,5596,2400,-13820,29.99,-437,-148,-141,
508,5616,2420,-13852,29.89,-384,-191,-135,
509,5524,2400,-13824,29.85,-355,-163,-129,
510,5656,2372,-13592,29.85,-263,-155,-68,
511,5436,2408,-13996,29.89,-416,-169,-133,
512,5632,2388,-13840,29.89,-357,-168,-148,
513,5616,2516,-13864,29.94,-371,-175,-131,
514,5632,2500,-13880,30.04,-390,-174,-172,
515,5556,2500,-13744,30.04,-384,-194,-179,
516,5588,2480,-13828,29.99,-392,-175,-111,
517,5596,2472,-13816,29.94,-386,-203,-158,
518,5440,2448,-13948,29.94,-453,-217,-122,
519,5588,2644,-13880,29.94,-331,-211,-155,
520,5608,2476,-13784,30.04,-471,-181,-200,
521,5480,2500,-13816,29.89,-463,-204,-185,
522,5492,2432,-13792,29.89,-412,-164,-154,
523,5684,2444,-13904,30.04,-356,-217,-153,
524,5636,2512,-13756,29.94,-402,-155,-106,
525,5628,2536,-13796,29.94,-454,-253,-226,
526,5572,2492,-13792,29.99,-430,-222,-198,
527,5592,2516,-13724,29.89,-427,-257,-172,
528,5608,2572,-13716,29.89,-417,-236,-171,
529,5420,2560,-13860,29.89,-422,-220,-176,
530,5516,2496,-13908,29.94,-391,-219,-192,
531,5588,2656,-13852,29.94,-318,-221,-132,
532,5552,2592,-14000,29.94,-129,-137,-83,
533,5540,2484,-13808,29.99,-345,-186,-171,
534,5540,2560,-13812,29.89,-412,-187,-164,
535,5544,2524,-13856,29.89,-390,-150,-150,
536,5636,2616,-13876,30.04,-411,-192,-214,
537,5628,2592,-13860,29.94,-408,-161,-142,
538,5480,2516,-13872,29.94,-389,-207,-127,
539,5416,2520,-13828,29.85,-403,-188,-153,
540,5432,2520,-13764,29.89,-396,-175,-161,
541,5600,2564,-13820,29.8,-369,-168,-144,
542,5520,2612,-13688,29.94,-327,-228,-124,
543,5556,2532,-13900,29.94,-201,-146,-58,
544,5508,2484,-13764,29.94,-284,-72,-69,
545,5500,2560,-13848,29.89,-375,-126,-97,
546,5568,2488,-13780,29.85,-349,-101,-141,
547,5512,2552,-13904,29.99,-292,-159,-119,
548,5632,2508,-13796,29.99,-273,-111,-80,
549,5548,2456,-13924,29.94,-363,-147,-62,
550,5608,2508,-13976,29.99,-467,-233,-218,
551,5636,2460,-13800,29.99,-471,-204,-144,
552,5588,2652,-13996,29.94,-436,-179,-130,
553,5588,2544,-13884,29.94,-429,-242,-169,
554,5436,2564,-13780,29.94,-391,-169,-171,
555,5588,2456,-13788,29.89,-434,-189,-180,
556,5600,2524,-13920,29.85,-347,-153,-127,
557,5684,2484,-13824,29.85,-253,-158,-93,
558,5720,2544,-13740,29.85,-421,-163,-71,
559,5624,2564,-13880,29.89,-382,-164,-81,
560,5572,2536,-13688,29.94,-322,-145,-94,
561,5600,2500,-13744,29.89,-346,-189,-175,
562,5528,2476,-13804,29.89,-435,-188,-155,
563,5572,2500,-13792,29.94,-414,-249,-182,
564,5572,2580,-13704,29.85,-454,-203,-158,
565,5560,2576,-13924,29.99,-406,-207,-211,
566,5568,2596,-13812,30.08,-438,-260,-195,
567,5736,2632,-13712,29.99,-445,-225,-228,
568,5624,2640,-13784,29.94,-379,-229,-146,
569,5584,2612,-13768,29.94,-387,-237,-161,
570,5544,2692,-13992,29.94,-345,-209,-178,
571,5548,2540,-13816,29.99,-398,-242,-180,
572,5488,2580,-13852,29.89,-382,-228,-183,
573,5536,2632,-13788,29.94,-349,-172,-145,
574,5660,2576,-13864,29.85,-282,-220,-155,
575,5504,2612,-13772,29.94,-360,-190,-128,
576,5536,2648,-13712,29.99,-344,-158,-135,
577,5504,2588,-13704,29.99,-328,-170,-109,
578,5612,2616,-13912,29.89,-387,-200,-123,
579,5556,2668,-13816,29.94,-336,-174,-121,
580,5520,2568,-13828,29.89,-330,-192,-121,
581,5444,2620,-13800,29.99,-360,-188,-148,
582,5572,2532,-13800,29.94,-415,-197,-86,
583,5476,2664,-13720,29.94,-381,-212,-129,
584,5556,2668,-13876,29.89,-342,-170,-111,
585,5616,2648,-13892,29.99,-336,-148,-105,
586,5576,2608,-13792,29.94,-349,-156,-137,
587,5488,2632,-13832,29.94,-436,-215,-145,
588,5544,2656,-13724,29.89,-378,-197,-160,
589,5548,2688,-13716,29.94,-362,-166,-135,
590,5652,2680,-13760,29.94,-382,-201,-142,
591,5576,2644,-13912,29.94,-351,-173,-175,
592,5556,2704,-13708,29.99,-339,-197,-125,
593,5568,2580,-13676,29.99,-343,-218,-158,
594,5672,2608,-13828,29.99,-384,-168,-109,
595,5620,2660,-13800,29.94,-396,-215,-144,
596,5532,2604,-13800,29.94,-311,-176,-138,
597,5596,2640,-13772,30.04,-346,-177,-116,
598,5592,2592,-13752,29.8,-339,-164,-182,
599,5596,2576,-13816,29.99,-383,-228,-200,
600,5596,2568,-13724,30.04,-395,-213,-206,
601,5448,2684,-13768,29.94,-391,-202,-140,
602,5564,2676,-13668,29.94,-387,-211,-170,
603,5624,2608,-13752,29.89,-391,-208,-149,
604,5628,2708,-13744,29.99,-363,-232,-153,
605,5632,2692,-13788,29.94,-324,-208,-176,
606,5468,2600,-13820,30.04,-405,-173,-128,
607,5512,2712,-13720,29.99,-389,-192,-172,
608,5476,2704,-13720,29.99,-370,-135,-134,
609,5556,2684,-13832,29.94,-359,-149,-145,
610,5568,2748,-13884,30.04,-268,-137,-84,
611,5560,2712,-13812,29.89,-335,-199,-128,
612,5416,2568,-13820,29.99,-350,-163,-157,
613,5484,2680,-13876,29.89,-372,-163,-90,
614,5512,2604,-13860,29.85,-379,-159,-101,
615,5648,2608,-13900,29.94,-363,-144,-90,
616,5516,2576,-13784,29.99,-362,-149,-131,
617,5476,2596,-13732,29.99,-339,-161,-115,
618,5616,2656,-13684,29.89,-428,-184,-155,
619,5508,2716,-13792,29.94,-363,-167,-113,
620,5520,2636,-13776,29.85,-361,-155,-117,
621,5480,2592,-13732,29.94,-288,-170,-111,
622,5636,2648,-13816,29.89,-370,-199,-133,
623,5552,2568,-13892,29.89,-315,-181,-148,
624,5604,2572,-13800,29.99,-305,-187,-99,
625,5644,2648,-13740,30.04,-360,-163,-150,
626,5592,2616,-13848,30.04,-352,-168,-135,
627,5684,2700,-13828,30.04,-347,-169,-105,
628,5540,2608,-13820,29.99,-354,-182,-120,
629,5540,2600,-13892,29.99,-324,-207,-100,
630,5568,2592,-13820,29.94,-461,-199,-184,
631,5600,2616,-13888,30.04,-400,-172,-169,
632,5468,2660,-13920,29.94,-379,-174,-111,
633,5496,2748,-13740,30.04,-360,-216,-167,
634,5560,2632,-13940,29.94,-396,-202,-184,
635,5592,2688,-13744,29.89,-427,-216,-195,
636,5480,2696,-13808,29.99,-369,-204,-177,
637,5388,2668,-13744,29.99,-394,-221,-183,
638,5564,2656,-13808,29.99,-402,-217,-167,
639,5556,2624,-13844,30.04,-372,-214,-176,
640,5468,2712,-13808,29.94,-377,-198,-137,
641,5488,2576,-13904,29.94,-296,-193,-184,
642,5632,2668,-13916,29.99,-479,-209,-179,
643,5488,2676,-13736,29.99,-415,-197,-146,
644,5492,2724,-13744,29.89,-335,-174,-112,
645,5440,2704,-13796,29.85,-285,-177,-89,
646,5524,2728,-13792,29.94,-326,-172,-122,
647,5520,2684,-13780,29.99,-355,-186,-166,
648,5492,2652,-13720,29.99,-378,-178,-132,
649,5512,2668,-13760,29.94,-385,-174,-151,
650,5472,2644,-13832,30.04,-362,-162,-126,
651,5560,2712,-13740,30.04,-361,-168,-140,
652,5472,2600,-14032,29.89,-373,-189,-147,
653,5560,2672,-13776,29.99,-378,-174,-98,
654,5536,2676,-13788,30.04,-396,-221,-166,
655,5452,2700,-13820,29.94,-341,-161,-109,
656,5480,2728,-13884,30.08,-372,-179,-110,
657,5524,2644,-13660,29.99,-322,-195,-117,
658,5548,2612,-13848,29.99,-385,-202,-151,
659,5508,2656,-13900,30.04,-363,-159,-112,
660,5536,2724,-13808,30.04,-328,-187,-171,
661,5564,2728,-13808,29.94,-352,-138,-139,
662,5492,2576,-13796,29.99,-357,-171,-143,
663,5552,2780,-13856,29.99,-359,-160,-97,
664,5556,2624,-13748,30.04,-344,-178,-126,
665,5528,2660,-13784,29.94,-381,-190,-105,
666,5644,2656,-13796,30.04,-412,-198,-138,
667,5528,2744,-13868,29.99,-332,-158,-75,
668,5500,2572,-13964,29.99,-392,-178,-167,
669,5548,2616,-13948,29.94,-352,-195,-106,
670,5624,2648,-13692,30.04,-387,-215,-176,
671,5556,2572,-13600,30.08,-378,-195,-198,
672,5524,2744,-13732,29.99,-418,-203,-192,
673,5624,2732,-13860,30.04,-357,-208,-175,
674,5588,2652,-13816,29.94,-357,-180,-165,
675,5580,2708,-13748,30.04,-346,-208,-192,
676,5500,2712,-13852,29.94,-397,-251,-204,
677,5552,2592,-13780,30.04,-380,-214,-86,
678,5560,2720,-13708,29.99,-443,-197,-173,
679,5516,2704,-13844,29.99,-338,-197,-176,
680,5532,2748,-13776,30.08,-339,-161,-131,
681,5492,2692,-13808,30.04,-265,-163,-144,
682,5448,2712,-13644,30.13,-362,-191,-97,
683,5568,2604,-13752,30.04,-340,-194,-112,
684,5644,2684,-13728,29.99,-334,-181,-136,
685,5564,2684,-13756,29.99,-337,-161,-141,
686,5480,2624,-13960,30.08,-299,-167,-132,
687,5532,2684,-13840,29.99,-337,-169,-125,
688,5492,2644,-13644,29.94,-278,-168,-102,
689,5556,2664,-13760,30.04,-419,-175,-138,
690,5552,2664,-13812,30.08,-364,-186,-121,
691,5564,2744,-13772,29.99,-290,-136,-91,
692,5572,2588,-13696,29.94,-381,-196,-116,
693,5544,2648,-13752,29.94,-372,-133,-83,
694,5540,2712,-13764,29.99,-382,-170,-133,
695,5600,2600,-13928,30.08,-365,-183,-113,
696,5612,2604,-13768,30.04,-362,-178,-148,
697,5516,2728,-13732,29.94,-327,-190,-133,
698,5600,2632,-13792,30.04,-315,-152,-130,
699,5556,2656,-13684,29.94,-325,-199,-153,
700,5512,2668,-13800,30.04,-235,-186,-110,
701,5684,2660,-13760,29.99,-427,-186,-97,
702,5480,2600,-13660,29.89,-334,-183,-137,
703,5668,2760,-13796,29.94,-349,-154,-117,
704,5692,2580,-13688,29.94,-370,-186,-141,
705,5580,2696,-13784,30.04,-344,-140,-96,
706,5592,2608,-13692,30.08,-374,-183,-188,
707,5644,2640,-13836,29.99,-375,-182,-151,
708,5604,2584,-13792,30.04,-383,-170,-133,
709,5592,2660,-13676,30.04,-391,-192,-154,
710,5668,2612,-13936,30.08,-358,-175,-149,
711,5644,2568,-13796,29.99,-326,-182,-116,
712,5540,2592,-13724,30.08,-326,-166,-159,
713,5544,2616,-13988,29.99,-311,-157,-86,
714,5616,2648,-13668,29.94,-358,-217,-148,
715,5656,2708,-13680,30.13,-357,-174,-155,
716,5532,2596,-13892,30.08,-360,-183,-149,
717,5588,2576,-13908,30.08,-290,-200,-162,
718,5568,2600,-13772,30.04,-393,-217,-170,
719,5472,2656,-13904,30.04,-345,-229,-201,
720,5588,2688,-13752,30.04,-383,-205,-174,
721,5572,2636,-13744,30.04,-340,-210,-178,
722,5668,2652,-13904,30.04,-366,-215,-191,
723,5576,2600,-13756,30.04,-422,-234,-176,
724,5532,2680,-13736,30.08,-417,-176,-152,
725,5556,2664,-13764,30.08,-364,-193,-141,
726,5560,2688,-13852,29.99,-452,-222,-157,
727,5540,2692,-13660,29.99,-397,-200,-170,
728,5532,2628,-13680,29.99,-349,-184,-131,
729,5496,2668,-13904,30.04,-330,-176,-180,
730,5616,2636,-13884,30.04,-390,-169,-129,
731,5532,2596,-13836,30.13,-346,-170,-124,
732,5460,2628,-13840,30.04,-304,-171,-100,
733,5524,2616,-13768,30.08,-351,-155,-140,
734,5588,2584,-13672,30.08,-359,-150,-109,
735,5532,2640,-13740,30.08,-337,-163,-118,
736,5564,2656,-13728,30.04,-343,-154,-119,
737,5676,2700,-13936,30.04,-290,-145,-119,
738,5520,2560,-13824,30.04,-432,-179,-103,
739,5476,2624,-13876,29.99,-405,-211,-123,
740,5528,2716,-13924,30.08,-341,-174,-117,
741,5536,2572,-13448,30.08,-332,-202,-105,
742,5608,2652,-13824,30.04,-359,-178,-112,
743,5632,2604,-13804,30.04,-350,-152,-140,
744,5612,2592,-13764,30.04,-309,-138,-114,
745,5496,2688,-13668,30.13,-337,-185,-140,
746,5580,2636,-13788,30.13,-282,-159,-106,
747,5524,2640,-13800,30.08,-342,-151,-102,
748,5600,2624,-13836,30.08,-360,-168,-124,
749,5572,2596,-13860,30.04,-314,-189,-129,
750,5588,2536,-13804,30.13,-355,-188,-107,
751,5688,2584,-13664,30.04,-408,-209,-171,
752,5608,2596,-13928,30.04,-405,-183,-159,
753,5568,2572,-13760,30.04,-338,-170,-85,
754,5548,2540,-13820,30.08,-298,-197,-109,
755,5752,2580,-13688,30.08,-419,-194,-192,
756,5556,2624,-13888,29.89,-410,-196,-181,
757,5464,2604,-13820,30.13,-370,-209,-159,
758,5524,2644,-13784,30.13,-405,-250,-208,
759,5600,2592,-13844,30.13,-390,-230,-174,
760,5600,2588,-13724,30.13,-345,-195,-168,
761,5612,2584,-13792,30.04,-433,-204,-156,
762,5504,2488,-13652,30.04,-377,-213,-177,
763,5612,2688,-13808,30.13,-431,-194,-161,
764,5656,2684,-13716,30.13,-431,-222,-206,
765,5432,2548,-13756,30.04,-379,-178,-161,
766,5600,2628,-13916,29.99,-397,-222,-166,
767,5564,2704,-13920,30.08,-376,-199,-137,
768,5672,2644,-13612,30.08,-403,-212,-155,
769,5496,2656,-13708,30.08,-369,-227,-149,
770,5532,2648,-13704,30.08,-375,-178,-171,
771,5592,2640,-13740,29.99,-321,-181,-134,
772,5472,2644,-13956,30.08,-274,-132,-129,
773,5548,2624,-13876,30.08,-388,-173,-86,
774,5400,2644,-13736,30.04,-264,-166,-69,
775,5548,2716,-13668,30.04,-392,-149,-116,
776,5528,2688,-13852,30.04,-377,-177,-150,
777,5564,2640,-13864,30.13,-272,-160,-42,
778,5604,2604,-13800,30.08,-354,-176,-129,
779,5560,2576,-13864,30.18,-386,-176,-115,
780,5604,2644,-13812,30.08,-370,-190,-139,
781,5508,2716,-13752,30.08,-349,-148,-104,
782,5652,2592,-13868,30.13,-367,-160,-116,
783,5652,2632,-13780,30.13,-328,-167,-148,
784,5568,2588,-13796,30.13,-360,-137,-117,
785,5620,2712,-13808,30.04,-335,-189,-132,
786,5584,2556,-13884,30.08,-274,-201,-144,
787,5676,2636,-13824,30.08,-322,-181,-140,
788,5544,2660,-13892,30.08,-284,-166,-124,
789,5552,2636,-13808,29.99,-346,-179,-135,
790,5608,2556,-13720,30.13,-274,-194,-111,
791,5660,2584,-13760,30.04,-381,-179,-153,
792,5560,2612,-13868,30.13,-318,-186,-162,
793,5548,2604,-13832,30.04,-351,-208,-141,
794,5696,2568,-13812,30.13,-355,-176,-165,
795,5584,2628,-13708,30.08,-376,-138,-131,
796,5592,2532,-13796,30.08,-357,-200,-101,
797,5640,2552,-13752,30.18,-390,-222,-148,
798,5656,2696,-13916,30.08,-396,-178,-102,
799,5540,2628,-13808,30.22,-378,-206,-145,
800,5500,2664,-13864,30.13,-385,-147,-146,
801,5600,2604,-13800,30.13,-336,-194,-188,
802,5536,2492,-13748,30.13,-370,-197,-160,
803,5516,2540,-13756,30.08,-444,-251,-201,
804,5624,2716,-13784,30.08,-396,-174,-204,
805,5596,2696,-13816,30.18,-409,-242,-162,
806,5568,2648,-13636,30.18,-346,-222,-160,
807,5544,2592,-13780,30.04,-399,-221,-163,
808,5556,2624,-13868,30.13,-365,-208,-129,
809,5596,2704,-13724,30.13,-300,-195,-150,
810,5608,2632,-13924,30.13,-432,-182,-171,
811,5604,2688,-13840,30.13,-202,-152,-125,
812,5560,2576,-13744,30.13,-258,-161,-73,
813,5496,2640,-13884,30.08,-323,-177,-176,
814,5500,2620,-13772,30.08,-398,-131,-71,
815,5552,2640,-13824,30.13,-461,-214,-127,
816,5552,2656,-13752,30.13,-378,-185,-126,
817,5616,2664,-13748,30.13,-377,-173,-145,
818,5452,2624,-13732,30.13,-386,-163,-166,
819,5548,2656,-13788,30.13,-343,-159,-107,
820,5644,2572,-13740,30.18,-132,-119,-70,
821,5500,2616,-13872,30.04,-229,-169,-152,
822,5544,2572,-13912,30.13,-509,-211,-237,
823,5376,2732,-13848,30.13,-354,-138,-103,
824,5608,2572,-13704,30.13,-273,-103,-43,
825,5632,2588,-13844,30.13,-350,-154,-139,
826,5524,2544,-13700,30.18,-412,-206,-152,
827,5608,2492,-13736,30.18,-355,-178,-163,
828,5608,2596,-13700,30.18,-306,-154,-36,
829,5632,2532,-13712,30.18,-362,-184,-141,
830,5552,2484,-13808,30.04,-407,-194,-159,
831,5628,2540,-13800,30.13,-359,-171,-121,
832,5644,2580,-13772,30.13,-254,-159,-87,
833,5700,2616,-13784,30.18,-399,-152,-54,
834,5572,2516,-13668,30.18,-361,-180,-147,
835,5500,2672,-13792,30.18,-326,-164,-121,
836,5596,2576,-13740,30.08,-350,-166,-126,
837,5548,2588,-13868,30.18,-350,-187,-116,
838,5616,2628,-13948,30.08,-373,-179,-112,
839,5624,2528,-13720,30.08,-349,-214,-163,
840,5476,2584,-13872,30.18,-358,-190,-154,
841,5668,2628,-14052,30.13,-416,-199,-144,
842,5560,2540,-13888,30.13,-356,-204,-145,
843,5556,2544,-13828,30.13,-421,-207,-163,
844,5592,2604,-13800,30.13,-442,-272,-241,
845,5612,2604,-13900,30.13,-414,-192,-133,
846,5528,2588,-13676,30.08,-446,-262,-203,
847,5460,2636,-13600,30.08,-364,-197,-157,
848,5532,2628,-13672,30.18,-393,-199,-168,
849,5556,2648,-13740,30.18,-334,-186,-129,
850,5560,2612,-13876,30.18,-389,-239,-174,
851,5448,2668,-13696,30.08,-350,-212,-118,
852,5644,2672,-13836,30.13,-381,-216,-150,
853,5448,2752,-13800,30.13,-368,-190,-129,
854,5564,2720,-13764,30.13,-358,-177,-144,
855,5512,2680,-13692,30.13,-297,-153,-129,
856,5616,2588,-13812,30.13,-233,-133,-83,
857,5616,2612,-13808,30.08,-306,-110,-96,
858,5648,2624,-13800,30.22,-400,-143,-109,
859,5508,2628,-13912,30.13,-364,-164,-146,
860,5580,2596,-13764,30.13,-372,-244,-135,
861,5680,2564,-13784,30.13,-376,-148,-97,
862,5536,2612,-13880,30.04,-391,-150,-161,
863,5540,2588,-13680,30.13,-338,-129,-100,
864,5576,2648,-13728,30.08,-321,-160,-103,
865,5636,2576,-13956,30.08,-375,-209,-177,
866,5480,2660,-13716,30.18,-385,-182,-125,
867,5576,2524,-13892,30.08,-319,-164,-128,
868,5688,2532,-13828,30.08,-309,-136,-105,
869,5600,2556,-13724,30.08,-391,-220,-132,
870,5596,2636,-13804,30.18,-332,-144,-106,
871,5496,2640,-13876,30.22,-345,-163,-123,
872,5504,2512,-13656,30.13,-275,-179,-109,
873,5664,2540,-13836,30.13,-364,-207,-123,
874,5592,2588,-13896,30.13,-356,-175,-165,
875,5628,2664,-13816,30.13,-357,-168,-147,
876,5588,2668,-13832,30.13,-360,-175,-141,
877,5564,2572,-13740,30.08,-374,-187,-114,
878,5576,2520,-13716,30.08,-377,-162,-120,
879,5560,2616,-13864,30.08,-354,-188,-178,
880,5664,2568,-13904,30.18,-489,-212,-177,
881,5508,2560,-13820,30.08,-483,-223,-208,
882,5524,2616,-13764,30.08,-393,-190,-144,
883,5704,2664,-13688,30.18,-445,-234,-235,
884,5584,2676,-13824,30.13,-437,-172,-187,
885,5564,2628,-13752,30.13,-353,-225,-209,
886,5452,2644,-13844,30.22,-327,-220,-138,
887,5600,2708,-13848,30.13,-349,-263,-210,
888,5548,2688,-13728,30.13,-228,-198,-215,
889,5640,2624,-13852,30.22,-258,-153,-28,
890,5472,2464,-13940,30.18,-532,-286,-204,
891,5448,2680,-13840,30.18,-356,-132,-61,
892,5700,2696,-13720,30.18,-333,-98,-68,
893,5688,2584,-13904,30.13,-409,-233,-168,
894,5284,2716,-13864,30.18,-393,-161,-139,
895,5676,2680,-13648,30.08,-41,-106,10,
896,5596,2540,-13724,30.13,-315,-273,-224,
897,5372,2544,-13900,30.18,-295,-121,-132,
898,5512,2684,-13832,30.08,-290,-163,-95,
899,5568,2636,-13892,30.22,-291,-195,-110,
900,5644,2504,-13888,30.22,-455,-180,-130,
901,5556,2640,-13708,30.22,-416,-169,-116,
902,5620,2624,-13632,30.13,-256,-185,-139,
903,5600,2576,-13864,30.27,-342,-141,-86,
904,5468,2644,-13844,30.18,-282,-155,-143,
905,5592,2504,-13896,30.22,-328,-164,-116,
906,5600,2432,-13764,30.22,-366,-157,-179,
907,5604,2564,-13688,30.13,-358,-136,-89,
908,5568,2608,-13740,30.18,-364,-201,-144,
909,5544,2548,-13760,30.18,-339,-204,-114,
910,5580,2436,-13828,30.18,-316,-162,-130,
911,5624,2584,-13912,30.18,-271,-147,-76,
912,5664,2596,-13752,30.13,-349,-151,-190,
913,5592,2552,-13780,30.13,-423,-211,-147,
914,5460,2432,-13928,30.13,-326,-189,-141,
915,5576,2560,-13768,30.08,-407,-136,-96,
916,5536,2572,-13720,30.18,-385,-171,-135,
917,5632,2524,-13888,30.32,-464,-201,-163,
918,5540,2540,-13656,30.22,-322,-181,-95,
919,5544,2504,-13544,30.22,-322,-171,-127,
920,5520,2544,-13732,30.13,-313,-154,-100,
921,5592,2504,-13812,30.27,-375,-181,-107,
922,5656,2580,-13832,30.27,-397,-205,-116,
923,5688,2468,-13600,30.18,-323,-165,-151,
924,5632,2696,-13800,30.18,-322,-147,-155,
925,5708,2532,-13708,30.18,-297,-162,-115,
926,5496,2560,-13716,30.22,-278,-183,-132,
927,5616,2536,-13904,30.13,-335,-186,-120,
928,5544,2532,-13904,30.13,-270,-149,-89,
929,5532,2500,-13876,30.18,-361,-173,-123,
930,5760,2468,-13704,30.08,-266,-171,-106,
931,5724,2492,-13912,30.18,-382,-210,-206,
932,5560,2452,-13900,30.18,-414,-237,-256,
933,5640,2480,-13908,30.13,-382,-176,-103,
934,,,,,,,,
935,5624,2424,-13716,30.27,-386,-147,-113,
936,5740,2556,-13840,30.18,-315,-208,-162,
937,5668,2516,-13764,30.13,-388,-222,-163,
938,5612,2548,-13916,30.18,-472,-219,-208,
939,5624,2592,-13796,30.13,-406,-224,-202,
940,5488,2640,-13836,30.27,-413,-246,-200,
941,5604,2616,-13804,30.18,-446,-226,-180,
942,5600,2604,-13840,30.13,-352,-217,-153,
943,5568,2620,-13736,30.27,-375,-236,-170,
944,5608,2500,-13888,30.13,-302,-216,-178,
945,5592,2600,-13764,30.18,-358,-192,-157,
946,5520,2628,-13796,30.32,-401,-226,-200,
947,5600,2604,-13908,30.13,-350,-161,-131,
948,5520,2560,-13752,30.32,-334,-225,-148,
949,5528,2664,-13800,30.27,-357,-169,-114,
950,5448,2576,-13912,30.27,-353,-203,-152,
951,5564,2668,-13860,30.22,-353,-169,-118,
952,5584,2648,-13932,30.18,-353,-175,-153,
953,5580,2608,-13796,30.27,-300,-177,-128,
954,5568,2548,-13688,30.22,-335,-171,-134,
955,5608,2556,-13820,30.22,-239,-161,-104,
956,5536,2604,-13800,30.18,-370,-183,-121,
957,5632,2580,-13816,30.27,-367,-153,-129,
958,5596,2528,-13904,30.32,-295,-157,-61,
959,5608,2540,-13748,30.18,-292,-153,-122,
960,5656,2576,-13740,30.32,-360,-130,-76,
961,5732,2548,-13732,30.22,-345,-173,-138,
962,5516,2684,-13684,30.18,-408,-188,-171,
963,5520,2560,-13784,30.18,-375,-169,-133,
964,5580,2588,-13740,30.27,-316,-163,-123,
965,5592,2504,-13860,30.32,-353,-174,-129,
966,5576,2588,-13664,30.27,-367,-147,-136,
967,5680,2496,-13800,30.18,-323,-146,-119,
968,5604,2496,-13688,30.22,-399,-199,-181,
969,5580,2608,-13788,30.18,-320,-164,-142,
970,5732,2516,-13900,30.18,-326,-149,-91,
971,5616,2492,-13808,30.22,-258,-130,-95,
972,5804,2512,-13812,30.27,-354,-180,-138,
973,5632,2568,-13640,30.22,-414,-205,-164,
974,5536,2540,-13736,30.22,-372,-185,-149,
975,5728,2520,-13748,30.27,-365,-194,-110,
976,5648,2560,-13968,30.27,-398,-184,-122,
977,5540,2476,-13856,30.22,-423,-203,-136,
978,5652,2540,-13812,30.27,-332,-192,-197,
979,5588,2596,-13800,30.27,-439,-187,-194,
980,5688,2568,-13768,30.22,-499,-271,-197,
981,5596,2544,-13732,30.32,-444,-186,-178,
982,5572,2484,-13748,30.27,-403,-231,-141,
983,5620,2556,-13808,30.27,-353,-211,-205,
984,5576,2520,-13688,30.22,-358,-199,-186,
985,5584,2580,-13840,30.32,-398,-233,-182,
986,5600,2556,-13772,30.32,-364,-231,-166,
987,5468,2624,-13756,30.27,-340,-214,-161,
988,5540,2648,-13776,30.27,-367,-216,-173,
989,5628,2644,-13860,30.22,-383,-214,-138,
990,5556,2532,-13688,30.22,-327,-213,-160,
991,5540,2484,-13696,30.27,-281,-209,-135,
992,5616,2588,-13764,30.27,-410,-211,-132,
993,5536,2616,-13844,30.32,-404,-187,-143,
994,5560,2608,-13732,30.22,-382,-187,-155,
995,5636,2616,-13732,30.27,-304,-195,-151,
996,5548,2596,-13872,30.22,-371,-158,-115,
997,5568,2572,-13836,30.32,-333,-195,-129,
998,5636,2648,-13852,30.27,-380,-173,-139,
999,5556,2540,-13900,30.22,-377,-197,-141,
1000,5488,2600,-13744,30.22,-339,-178,-115,
1001,5548,2616,-13884,30.27,-343,-171,-132,
1002,5516,2588,-13860,30.32,-366,-197,-138,
1003,5604,2572,-13740,30.32,-256,-166,-156,
1004,5624,2544,-13728,30.27,-408,-175,-115,
1005,5552,2536,-13756,30.32,-370,-194,-133,
1006,5580,2596,-13712,30.27,-322,-156,-79,
1007,5752,2512,-13744,30.37,-323,-200,-103,
1008,5688,2568,-13648,30.22,-411,-172,-158,
1009,5528,2584,-13628,30.27,-342,-193,-139,
1010,5588,2584,-13724,30.37,-364,-165,-162,
1011,5560,2636,-13756,30.22,-310,-184,-106,
1012,5664,2564,-13712,30.22,-312,-167,-72,
1013,5664,2488,-13936,30.32,-311,-179,-109,
1014,5652,2660,-13816,30.32,-343,-195,-160,
1015,5648,2596,-13752,30.32,-389,-211,-166,
1016,5644,2568,-13872,30.18,-338,-157,-51,
1017,5656,2608,-13720,30.32,-371,-120,-78,
1018,5652,2572,-13760,30.27,-310,-150,-101,
1019,5612,2528,-13912,30.32,-342,-185,-144,
1020,5572,2584,-13832,30.41,-329,-223,-170,
1021,5544,2452,-13720,30.27,-385,-198,-150,
1022,5608,2620,-13752,30.22,-384,-172,-150,
1023,5544,2560,-13828,30.32,-374,-189,-84,
1024,5644,2660,-13844,30.27,-389,-170,-159,
1025,5640,2600,-13880,30.22,-406,-202,-149,
1026,5660,2568,-13784,30.32,-404,-207,-134,
1027,5512,2496,-13864,30.32,-380,-223,-126,
1028,5656,2648,-13728,30.27,-327,-198,-207,
1029,5648,2588,-13720,30.22,-490,-217,-168,
1030,5612,2680,-13672,30.22,-398,-221,-201,
1031,5556,2636,-13908,30.27,-326,-175,-176,
1032,5684,2508,-13820,30.27,-323,-198,-155,
1033,5640,2564,-13784,30.27,-424,-190,-187,
1034,5620,2588,-13824,30.32,-390,-242,-190,
1035,5588,2616,-13696,30.32,-343,-230,-144,
1036,5628,2636,-13856,30.32,-408,-169,-157,
1037,5608,2604,-13836,30.32,-418,-192,-147,
1038,5540,2612,-13852,30.27,-375,-213,-159,
1039,5552,2628,-13656,30.27,-377,-228,-146,
1040,5588,2644,-13760,30.27,-323,-189,-132,
1041,5696,2568,-13748,30.27,-392,-233,-169,
1042,5588,2736,-13872,30.27,-327,-161,-159,
1043,5616,2592,-13840,30.32,-369,-203,-127,
1044,5592,2568,-13800,30.22,-278,-165,-95,
1045,5648,2604,-13764,30.22,-313,-185,-153,
1046,5496,2608,-13924,30.27,-374,-172,-154,
1047,5536,2648,-13900,30.27,-320,-165,-125,
1048,5548,2556,-13772,30.41,-336,-151,-142,
1049,5544,2592,-13748,30.22,-372,-201,-163,
1050,5528,2576,-13772,30.32,-379,-176,-166,
1051,5620,2520,-13776,30.41,-309,-176,-129,
1052,5624,2604,-13676,30.32,-451,-211,-148,
1053,5648,2544,-13852,30.37,-364,-170,-137,
1054,5480,2588,-13796,30.27,-393,-162,-109,
1055,5580,2556,-13700,30.27,-280,-195,-142,
1056,5628,2660,-13848,30.27,-416,-190,-173,
1057,5532,2664,-13820,30.18,-367,-214,-138,
1058,5536,2688,-13732,30.22,-343,-233,-194,
1059,5656,2668,-13816,30.22,-479,-223,-188,
1060,5548,2616,-13832,30.41,-443,-257,-192,
1061,5612,2660,-13908,30.27,-272,-88,-39,
1062,5724,2688,-13740,30.27,-166,-127,-5,
1063,5616,2516,-13936,30.32,-132,-166,-137,
1064,5600,2512,-13716,30.32,-283,-204,-198,
1065,5588,2524,-13796,30.32,-212,-187,-184,
1066,5616,2528,-13808,30.37,-261,-177,-161,
1067,5512,2456,-13860,30.27,-367,-138,-69,
1068,5716,2448,-13780,30.27,-498,-140,-83,
1069,5752,2512,-13816,30.32,-486,-176,-76,
1070,5656,2604,-13920,30.32,-476,-208,-174,
1071,5596,2612,-13688,30.32,-325,-193,-136,
1072,5612,2552,-13920,30.32,-320,-188,-168,
1073,5684,2616,-13792,30.32,-357,-177,-116,
1074,5652,2504,-13984,30.41,-280,-185,-144,
1075,5712,2480,-13700,30.32,-379,-203,-126,
1076,5584,2540,-13780,30.37,-403,-218,-117,
1077,5568,2568,-13672,30.27,-361,-165,-95,
1078,5664,2560,-13644,30.32,-350,-191,-125,
1079,5604,2536,-13744,30.32,-341,-190,-110,
1080,5700,2524,-13852,ˇ                                                 ,,,,
Sample,aX,aY,az,Temp,gX,gY,gz                                                   ,
1,5952,8244,-9840,29.61,865,-2874,1958,
2,6088,8688,-10868,29.52,3199,-2412,1277,
3,7336,6280,-10600,29.66,5913,-489,1047,
4,6024,7424,-11640,29.61,5020,-2604,1060,
5,5176,6504,-12356,29.57,4993,-2204,2233,
6,6144,6076,-13492,29.61,3665,-1672,2564,
7,5072,6808,-12740,29.57,1467,-368,1118,
8,6256,5148,-12852,29.61,1036,-27,1369,
9,5204,4232,-14240,29.66,1711,766,500,
10,6316,4476,-13208,29.61,2546,-351,712,
11,6196,5456,-12596,29.57,1110,1596,-456,
12,5556,5504,-12356,29.61,1192,-750,497,
13,4896,4644,-13128,29.57,2403,-161,801,
14,4848,3888,-13900,29.61,1198,555,671,
15,5664,3912,-13860,29.61,825,696,1804,
16,6124,2808,-13348,29.66,1583,-735,2083,
17,6660,2968,-13004,29.61,798,-769,1163,
18,6752,2716,-13948,29.52,1308,-306,255,
19,5512,2120,-13708,29.57,1033,222,-867,
20,5808,3084,-13956,29.61,-523,-148,-912,
21,5740,3432,-14052,29.66,63,-42,-1110,
22,6024,1192,-12812,29.57,1659,229,-1119,
23,7428,1788,-11208,29.61,60,-2426,-1850,
24,5012,6024,-18168,29.57,-1310,-556,-3856,
25,5036,1408,-11844,29.57,1645,526,-15,
26,5852,2020,-15244,29.52,1118,146,1258,
27,5676,2180,-14132,29.57,382,-164,-644,
28,5436,2564,-14092,29.52,-1324,-267,-115,
29,5444,2676,-13592,29.61,-706,-313,78,
30,5704,2480,-13768,29.61,-734,-112,44,
31,5620,2656,-13856,29.57,-318,-400,247,
32,5588,2096,-14176,29.75,-239,-469,148,
33,5544,2100,-13924,29.71,-244,-440,48,
34,5616,2104,-13880,29.57,-220,-218,41,
35,5564,2036,-13988,29.57,-135,-179,-120,
36,5580,2224,-13932,29.52,-138,-149,-194,
37,5528,2144,-13772,29.66,-311,-77,-171,
38,5596,2244,-13656,29.61,-312,-63,-193,
39,5536,2224,-13900,29.57,-271,-122,-233,
40,5580,2284,-13952,29.52,-255,-160,-224,
41,5720,2096,-13984,29.47,-276,-210,-151,
42,5588,2064,-14076,29.61,-244,-183,-176,
43,5584,2144,-13884,29.61,-353,-131,-273,
44,5444,2152,-14084,29.66,-423,-89,-217,
45,5636,2024,-13972,29.66,-333,-126,-184,
46,5612,2172,-13864,29.57,-337,-133,-213,
47,5696,2160,-13956,29.61,-275,-139,-170,
48,5664,2088,-13952,29.47,-323,-192,-126,
49,5692,2172,-13704,29.66,-399,-169,-178,
50,5676,2064,-13764,29.52,-335,-242,-166,
51,5688,2068,-13812,29.57,-306,-203,-208,
52,5596,2048,-13964,29.61,-351,-191,-180,
53,5596,2088,-13836,29.57,-363,-181,-278,
54,5636,2096,-13836,29.61,-348,-149,-244,
55,5628,2064,-14008,29.57,-320,-164,-175,
56,5584,2048,-13816,29.66,-237,-149,-184,
57,5728,2016,-13924,29.61,-323,-175,-194,
58,5632,1972,-13740,29.57,-212,-166,-219,
59,5700,1952,-13908,29.52,-396,-222,-19˘                         ,