0.6,,,,,,,,
1668,20,12600,-8592,30.41.00,30.41,1107,252,-12
1667,208,12700,-8284,30.41,-169,-428,-112,
1668,20,12600,-8592,30.41,                                             ,,,
Sample,aX,aY,az,Temp,gX,gY,gz                                                   ,
1,4568,7096,-19108,30.51,3513,-5656,2569,
2,3740,4908,-14680,30.55,-1732,659,-943,
3,4308,5228,-12564,30.41,-705,-1597,-2107,
4,2412,5052,-15148,30.41,501,-2080,-597,
5,2124,4396,-12692,30.41,737,-2342,-459,
6,2344,4180,-14540,30.37,1987,-5057,-2141,
7,2376,4212,-14676,30.37,2385,-2595,-1213,
8,1700,3580,-14944,30.46,817,965,-1046,
9,1612,3976,-13600,30.41,-696,-1402,1065,
10,760,3092,-15228,30.41,1271,233,-92,
11,1604,2948,-13584,30.41,792,-255,1121,
12,1764,2832,-15140,30.46,1423,-1412,810,
13,1624,2816,-14668,30.46,-710,-412,-852,
14,5640,4244,-14576,30.41,-1495,2124,-1178,
15,1496,3132,-14660,30.46,-520,389,-525,
16,2400,2940,-14840,30.41,-801,-704,-442,
17,2496,3036,-14636,30.41,-690,-647,-1074,
18,2016,2752,-14564,30.6,-805,-342,-1253,
19,1720,3408,-14324,30.51,-733,-801,-1235,
20,1408,3164,-14748,30.51,-683,-1134,-801,
21,1520,2908,-14496,30.41,-1135,-1331,-655,
22,1188,3704,-14796,30.41,-617,-1699,-243,
23,2176,3948,-14796,30.41,-266,-1443,-977,
24,-256,2052,-13104,30.46,1630,536,-1341,
25,220,3824,-15184,30.46,-2641,797,-2117,
26,960,3580,-14484,30.37,98,-1702,191,
27,1540,3712,-14460,30.55,-1071,-1692,-726,
28,1092,2464,-14516,30.46,-254,-474,-920,
29,412,3120,-14116,30.41,-831,-367,-654,
30,476,3652,-14412,30.46,-327,-746,-395,
31,612,3628,-14680,30.41,-921,-469,-694,
32,364,3940,-14032,30.51,-692,-546,-568,
33,252,3616,-14420,30.46,-813,-735,-425,
34,336,3604,-14460,30.51,-841,-1149,-471,
35,664,3776,-14508,30.46,-1133,-962,-904,
36,192,4068,-13976,30.55,-983,-525,-1065,
37,-360,3832,-14320,30.41,-770,-432,-803,
38,12,4020,-14380,30.41,-576,-535,-518,
39,272,4060,-14400,30.46,-596,-259,-550,
40,108,4064,-14212,30.41,-304,25,-580,
41,36,3660,-14412ˇ                                                        ,,,,,
Sample,aX,aY,az,Temp,gX,gY,gz                                                   ,
1,-152,4056,-14356,30.37,-206,-59,-571,
2,-164,4076,-14224,30.41,-151,-65,-527,
3,-240,3936,-14328,30.51,-133,-122,-410,
4,-224,3880,-14272,30.41,-82,-124,-119,
5,-172,3784,-14428,30.51,-196,61,8,
6,-32,3804,-14436,30.46,-166,-76,174,
7,-72,3808,-14320,30.46,-106,-130,131,
8,72,3956,-14412,30.51,-112,-354,68,
9,128,3700,-14468,30.37,-488,-362,-81,
10,48,3516,-14376,30.55,-590,-505,-180,
11,-148,3556,-14412,30.41,-523,-426,-232,
12,8,3604,-14248,30.46,-609,-445,-183,
13,-68,3724,-14184,30.51,-620,-479,-132,
14,-84,3924,-14388,30.55,-1081,-419,-299,
15,-172,4132,-14196,30.46,-957,-542,-295,
16,-172,4060,-14120,30.41,-671,-458,-239,
17,-348,4044,-14064,30.51,-320,17,-298,
18,-416,4136,-14192,30.41,68,-139,37,
19,-184,3980,-14092,30.41,362,-256,42,
20,168,3620,-14800,30.46,-232,-241,-289,
21,-156,3916,-14268,30.41,-109,-120,-556,
22,-464,3792,-14248,30.37,-231,-244,-506,
23,-316,3868,-14440,30.46,-330,-76,-519,
24,-112,3820,-14432,30.51,-246,-190,-338,
25,-332,3736,-14284,30.37,-433,-65,-473,
26,-408,3916,-13948,30.51,-422,-118,-378,
27,-344,3704,-14192,30.41,-426,-71,-345,
28,-252,3700,-14308,30.41,-414,-288,-100,
29,40,3800,-14260,30.55,-477,-221,-144,
30,-36,3892,-14328,30.51,-589,-262,-341,
31,-336,4056,-14208,30.55,-413,-61,-375,
32,-480,3944,-14216,30.51,-375,-198,-117,
33,-304,3844,-14140,30.41,-106,-370,85,
34,-52,3672,-14404,30.51,82,-525,233,
35,-156,4220,-13744,30.41,226,-633,-79,
36,-324,3688,-15152,30.37,178,-1031,3,
37,-532,3740,-13816,30.41,-449,-338,-351,
38,-692,3712,-15072,30.46,-178,-558,-73,
39,-616,3784,-14180,30.41,-317,-351,-125,
40,-664,3536,-14616,30.41,-253,-3,-217,
41,-380,3644,-14424,30.46,-306,-216,-74,
42,-652,3732,-14304,30.41,-501,23,-321,
43,-592,3332,-14284,30.32,-269,-516,-4,
44,-132,3492,-14548,30.46,-672,-310,-287,
45,-632,3792,-14064,30.46,-805,480,-843,
46,-952,3424,-14748,30.41,-79,-451,140,
47,-328,3732,-14204,30.46,-567,-528,157,
48,-112,3652,-14156,30.51,-461,12,-451,
49,-612,3700,-14444,30.55,-450,35,-293,
50,-624,3716,-14136,30.55,-263,-232,-53,
51,-292,3756,-14168,30.41,-42,-579,89,
52,-392,3616,-14408,30.46,-372,-211,-150,
53,-404,3944,-14656,30.46,-285,-726,29,
54,-824,3608,-13932,30.51,-518,123,-392,
55,-660,3572,-14252,30.46,-224,-257,62,
56,-448,3572,-15388,30.51,-353,-168,-7,
57,-292,3956,-13460,30.55,-214,-596,162,
58,-544,3472,-14544,30.6,-340,-70,-229,
59,-372,3668,-13208,30.46,-251,-424,130,
60,-544,3848,-14340,30.51,-481,-78,-168,
61,-392,3716,-14372,30.41,-200,-365,-24,
62,-700,3444,-14172,30.46,-109,-77,38,
63,-228,3720,-14560,30.46,-294,-254,19,
64,-676,3664,-14160,30.51,-461,-186,-151,
65,-612,3652,-14384,30.41,-248,-243,126,
66,-620,3664,-14524,30.46,-95,-239,169,
67,-912,3428,-14440,30.51,-175,11,-33,
68,-392,3516,-14492,30.51,33,-484,276,
69,-480,3628,-13912,30.46,-494,-58,-130,
70,-708,3396,-14500,30.51,-323,142,-174,
71,-152,3140,-13856,30.46,247,-417,353,
72,72,3496,-14388,30.51,-4,0,-309,
73,-340,3412,-14752,30.51,-383,11,-625,
74,-880,3180,-14328,30.41,-421,-299,-256,
75,-352,3756,-14364,30.46,-543,-183,-284,
76,-436,3196,-14332,30.46,-51,-53,-333,
77,-512,3232,-14712,30.51,171,-179,-131,
78,-156,3372,-14652,30.46,-438,-269,-326,
79,-544,3232,-14328,30.51,-366,-65,-262,
80,-400,3512,-14456,30.51,-410,-289,-294,
81,-624,3412,-14308,30.55,-543,-225,-394,
82,-536,3272,-14736,30.46,-491,-239,-136,
83,-368,3436,-14276,30.51,-639,-288,-233,
84,-708,3364,-14312,30.41,-467,-156,-102,
85,-404,3476,-14248,30.46,-155,0,20,
86,-404,3480,-14476,30.46,-110,-164,99,
87,-372,3408,-14524,30.46,-493,-256,-338,
88,-608,3320,-14356,30.37,-325,-124,-189,
89,-372,3480,-14556,30.46,-239,-73,-4,
90,-368,3404,-14356,30.46,-244,-47,-181,
91,-308,3404,-14356,30.41,-244,-56,-113,
92,-492,3264,-14540,30.46,-281,100,-209,
93,-100,3308,-14080,30.51,-90,-257,94,
94,-236,3352,-14540,30.51,-509,-62,-280,
95,-424,3252,-14324,30.41,-315,-236,-116,
96,-316,3264,-14460,30.46,-391,-71,-114,
97,-308,3240,-14456,30.41,-440,-116,-103,
98,-260,3388,-14452,30.51,-310,-52,-181,
99,-216,3340,-14520,30.46,-374,-158,-137,
100,-432,3384,-14368,30.46,-529,-128,-173,
101,-216,3404,-14444,30.46,-409,-143,-151,
102,-220,3332,-14380,30.46,-451,-172,-168,
103,-340,3328,-14536,30.46,-294,-239,-166,
104,-116,3428,-14524,30.37,-516,-273,-229,
105,-208,3428,-14404,30.37,-455,-321,-164,
106,-304,3388,-14412,30.55,-473,-245,-165,
107,-412,3468,-14448,30.46,-456,-270,-135,
108,-204,3404,-14476,30.46,-508,-247,-174,
109,-328,3492,-14360,30.55,-443,-265,-164,
110,-344,3468,-14468,30.55,-551,-191,-227,
111,-360,3428,-14224,30.46,-425,-215,-157,
112,-284,3428,-14364,30.37,-399,-173,-182,
113,-316,3452,-14268,30.37,-275,-184,-206,
114,-204,3448,-14608,30.46,-254,-183,-100,
115,-324,3428,-14268,30.55,-261,-126,-187,
116,-388,3544,-14236,30.46,-159,-92,-116,
117,-272,3372,-14432,30.37,-280,-153,-165,
118,-332,3356,-14516,30.46,-494,-226,-202,
119,-300,3380,-14496,30.46,-632,-292,-205,
120,-448,3428,-14416,30.46,-530,-181,-101,
121,-340,3404,-14236,30.46,-264,-134,-72,
122,-212,3544,-14440,30.46,-318,-154,-157,
123,-288,3456,-14424,30.46,-333,-251,-208,
124,-352,3312,-14484,30.46,-291,-229,-145,
125,-324,3372,-14484,30.41,-286,-157,-163,
126,-380,3324,-14260,30.51,-262,-108,-104,
127,-240,3384,-14500,30.51,-357,-155,-175,
128,-188,3492,-14316,30.6,-439,-216,-152,
129,-384,3548,-14284,30.51,-367,-178,-153,
130,-188,3444,-14428,30.51,-386,-187,-106,
131,-276,3404,-14476,30.51,-411,-191,-199,
132,-276,3460,-14320,30.41,-382,-270,-181,
133,-308,3500,-14184,30.46,-307,-149,-154,
134,-300,3504,-14648,30.55,-366,-195,-139,
135,-248,3400,-14392,30.41,-350,-207,-168,
136,-316,3404,-14492,30.51,-381,-174,-162,
137,-272,3464,-14364,30.41,-442,-200,-222,
138,-360,3448,-14376,30.51,-411,-180,-156,
139,-400,3416,-14548,30.51,-398,-204,-132,
140,-348,3416,-14488,30.41,-475,-241,-213,
141,-284,3516,-14404,30.37,-431,-205,-189,
142,-384,3432,-14440,30.46,-369,-145,-192,
143,-304,3520,-14408,30.37,-329,-179,-170,
144,-308,3476,-14492,30.46,-261,-175,-173,
145,#NAME?,,,,,,,
146,-2276,2556,-18444,30.46,-2770,-4441,2273,
147,-2452,2204,-12140,30.37,-3835,-4783,1515,
148,-892,-116,-14160,30.46,-947,-8432,1576,
149,-2088,5692,-22756,30.46,-5873,-5488,1105,
150,-6988,1124,-8048,30.46,-3655,-5009,1416,
151,-6128,5044,-16508,30.46,1677,-7833,1996,
152,-9212,4064,-12552,30.46,1802,-9047,1147,
153,-9416,4900,-14356,30.41,537,-9799,-1223,
154,-11704,6384,-10844,30.41,5239,-12326,1115,
155,-11828,4864,-14320,30.46,1493,-8633,605,
156,-11324,4140,-11872,30.46,1730,-5067,1837,
157,-11836,3224,-11436,30.51,3470,-4542,2133,
158,-11300,3632,-10196,30.41,5871,-3947,2101,
159,-9856,2816,-9036,30.46,2144,40,-318,
160,-8168,2144,-8196,30.41,1310,1705,-1377,
161,-7756,1740,-7836,30.51,1278,3490,-1663,
162,-8740,1900,-7768,30.37,1545,4417,-1105,
163,-10744,1356,-10008,30.46,1396,4722,694,
164,-10740,564,-10864,30.46,1828,3743,839,
165,-9964,236,-10748,30.46,1478,2477,-1211,
166,-9280,76,-10620,30.55,352,2345,-3716,
167,-8548,-532,-9336,30.41,993,1892,-2985,
168,-7728,-448,-8928,30.51,2612,1491,-727,
169,-9996,252,-11244,30.37,2744,-108,2195,
170,-11404,-688,-11776,30.37,-205,660,4089,
171,-8980,240,-11028,30.37,245,-330,3169,
172,-7804,-100,-10020,30.51,-678,-959,2214,
173,-7980,-36,-10256,30.41,-1987,-2402,4493,
174,-8916,556,-10888,30.41,-2806,-3012,7925,
175,-9972,2200,-10716,30.51,-4179,-2443,9870,
176,-9120,2916,-10060,30.46,-7419,-1327,7333,
177,-10128,4844,-11492,30.41,-11390,247,1641,
178,-10248,4788,-12456,30.37,1147,-5707,3514,
179,-9952,4840,-10572,30.41,8654,-1940,-382,
180,-8668,5868,-11216,30.41,5747,-6159,391,
181,-8688,5888,-10236,30.41,1779,-4396,-1177,
182,-9912,5156,-9772,30.41,1493,-5210,-1052,
183,-10452,5360,-8948,30.46,283,-3027,-2119,
184,-11284,5516,-9364,30.41,-925,-1674,-2263,
185,-10548,4476,-9224,30.51,-961,-768,-1764,
186,-11088,5092,-8556,30.46,-671,-410,-1878,
187,-11716,4508,-8832,30.37,-878,-410,-615,
188,-11588,3684,-8740,30.46,-721,-323,-628,
189,-11568,3756,-8420,30.46,-1250,448,-1071,
190,-12236,3084,-8144,30.41,-1657,1147,-1056,
191,-11816,3416,-8180,30.46,-95,-20,-311,
192,-11348,3604,-8500,30.41,59,-1233,-553,
193,-11632,3428,-8628,30.46,-1672,-22,-1814,
194,-11944,3056,-8368,30.46,-1390,-373,-1070,
195,-12104,3168,-8428,30.41,-253,-714,-648,
196,-12268,3188,-8048,30.51,-491,-172,-714,
197,-12152,3016,-8204,30.41,-1122,-163,-324,
198,-11988,2984,-8572,30.41,-1716,56,-335,
199,-11632,2912,-8736,30.6,-1544,-459,-648,
200,-11944,2732,-8448,30.41,-1291,-814,-1123,
201,-12144,2788,-8300,30.46,-1555,11,-1342,
202,-12248,3040,-7992,30.46,-1320,774,-1387,
203,-12096,3448,-7836,30.46,-942,628,-1234,
204,-12112,3512,-7976,30.46,-798,35,-872,
205,-11932,3380,-8068,30.37,-967,238,-836,
206,-12168,3488,-8236,30.51,-363,-65,-302,
207,-12028,3512,-8216,30.51,35,-253,21,
208,-11824,3344,-8412,30.41,167,-157,-12,
209,-11748,3348,-8512,30.51,361,-286,175,
210,-11740,3376,-8676,30.41,47,-55,62,
211,-11696,3220,-8676,30.46,-216,-66,123,
212,-11864,3056,-8700,30.41,-88,-11,96,
213,-11712,3172,-8464,30.46,-13,-17,-91,
214,-11704,3208,-8628,30.37,-376,160,-209,
215,-11676,3264,-8620,30.37,-273,114,-187,
216,-11764,3320,-8504,30.55,-329,-68,-103,
217,-11704,3284,-8536,30.51,-493,31,-121,
218,-11720,3308,-8752,30.51,83,-418,-8,
219,-11588,3416,-8764,30.41,-443,-60,-92,
220,-11376,3316,-8832,30.46,-172,-128,-222,
221,-11696,3204,-8668,30.46,-492,-110,-128,
222,-11732,3124,-8776,30.37,-366,-298,-130,
223,-11644,3260,-8652,30.55,-670,-101,-249,
224,-11576,3432,-8620,30.46,-426,-86,-119,
225,-11656,3464,-8652,30.46,-319,20,-135,
226,-11404,3528,-8756,30.41,-380,-26,-90,
227,-11388,3452,-8888,30.46,-534,28,81,
228,-11648,3324,-8948,30.41,-428,116,290,
229,-11676,3340,-8756,30.46,-509,334,81,
230,-11580,3404,-8712,30.41,-834,460,-79,
231,-11516,3564,-8716,30.46,-552,181,-29,
232,-11384,3580,-8800,30.51,-18,31,-167,
233,-11216,3452,-8996,30.46,-262,65,-202,
234,-11304,3280,-9144,30.37,-349,-13,-218,
235,-11252,3204,-9016,30.51,-142,-145,-268,
236,-11444,3296,-9088,30.46,-87,-28,-281,
237,-11420,3272,-9080,30.41,-239,-67,-147,
238,-11480,3244,-9100,30.37,-515,117,-290,
239,-11372,3552,-9248,30.46,-323,104,-274,
240,-11412,3816,-8936,30.37,-270,-81,-317,
241,-11240,3852,-8932,30.41,-517,-93,-111,
242,-11300,3700,-9020,30.51,-606,-359,244,
243,-11172,3728,-9084,30.32,-699,-306,41,
244,-11296,3520,-9336,30.55,-769,-333,100,
245,-11136,3436,-9104,30.46,-508,-387,110,
246,-11164,3512,-9312,30.46,-849,-193,-121,
247,-11092,3520,-9308,30.37,-738,-122,-238,
248,-11192,3624,-9072,30.51,-484,-65,-334,
249,-11300,3628,-8816,30.41,-507,-11,-348,
250,-11360,3620,-8940,30.41,-676,113,-472,
251,-11128,3740,-8904,30.41,-235,-184,-156,
252,-11228,3728,-9040,30.46,-280,-119,-208,
253,-11184,3816,-9124,30.46,-192,-184,-36,
254,-11088,3608,-9268,30.46,-94,-208,56,
255,-11064,3752,-9288,30.41,-120,-233,-17,
256,-11176,3632,-9244,30.41,-136,-223,-86,
257,-11144,3604,-9120,30.46,-363,-104,-227,
258,-11028,3660,-9260,30.46,-348,-39,-409,
259,-11184,3704,-8992,30.55,-220,-161,-290,
260,-11204,3544,-9148,30.46,-439,-144,-253,
261,-11120,3732,-9156,30.51,-477,-152,-284,
262,-11116,3744,-9240,30.41,-409,-229,-150,
263,-11132,3648,-9200,30.46,-302,-232,-159,
264,-10984,3588,-8992,30.46,-325,-184,-248,
265,-11232,3484,-9204,30.41,-606,-163,-201,
266,-11088,3616,-9324,30.51,-425,-213,-211,
267,-11164,3644,-9180,30.51,-438,-276,-143,
268,-11252,3748,-9236,30.41,-217,-291,8,
269,-11116,3732,-9056,30.51,-192,-339,93,
270,-11084,3672,-9128,30.46,-327,-272,25,
271,-11056,3524,-9248,30.37,-164,-327,223,
272,-11152,3648,-9044,30.46,-59,-324,161,
273,-11148,3704,-9092,30.41,-348,-140,-93,
274,-11288,3740,-8820,30.51,-136,-277,-180,
275,-11172,3660,-9028,30.46,-373,-558,214,
276,-11008,3696,-9372,30.46,-169,-593,-19,
277,-11084,3852,-9208,30.55,-455,-155,-356,
278,-11144,3720,-9156,30.46,-405,-57,-465,
279,-11304,3648,-9028,30.37,-295,-224,-49,
280,-11156,3776,-8892,30.46,-258,-336,138,
281,-11096,3824,-8892,30.37,-58,-409,159,
282,-11120,3828,-9168,30.37,-244,-334,38,
283,-11188,3748,-9264,30.41,-270,-319,2,
284,-11096,3820,-9020,30.41,-214,-188,-154,
285,-11312,3756,-9120,30.41,-283,-126,-166,
286,-11092,3580,-8936,30.41,-415,-78,-293,
287,-11148,3552,-9220,30.41,-185,-299,-157,
288,-11196,3700,-9104,30.46,37,-217,-135,
289,-11264,3900,-8804,30.51,234,-306,35,
290,-11132,3912,-8956,30.41,481,-351,-30,
291,-11220,3760,-9036,30.37,386,-389,138,
292,-11312,3624,-9156,30.37,-37,-245,3,
293,-11120,3516,-9296,30.37,-295,-209,-67,
294,-11088,3388,-9224,30.46,-277,-95,-233,
295,-11292,3520,-8904,30.46,-92,-365,38,
296,-11156,3736,-8840,30.41,76,-593,115,
297,-11424,3428,-9000,30.37,151,-1072,342,
298,-11664,3992,-9820,30.46,-1356,-1715,295,
299,-10516,3496,-9212,30.41,-1067,771,-1005,
300,-11052,3844,-8120,30.37,427,295,-1080,
301,-11704,3684,-8624,30.46,467,-721,601,
302,-11420,3384,-9212,30.32,227,-534,153,
303,-11044,3396,-8976,30.41,816,-348,-90,
304,-11000,3792,-8888,30.41,774,-699,373,
305,-11068,3432,-9892,30.46,-1104,-144,394,
306,-11424,3448,-9588,30.51,295,-361,239,
307,-11192,3632,-8684,30.46,-306,-17,-267,
308,-11232,3440,-8716,30.46,-1125,165,-474,
309,-11456,3416,-8976,30.37,-584,-199,-147,
310,-11320,3552,-9168,30.41,-690,-95,-252,
311,-11308,3596,-8940,30.51,-530,-149,-257,
312,-11236,3664,-8648,30.41,-834,-210,-213,
313,-11088,3552,-9268,30.41,-954,-208,-196,
314,-11228,3520,-9176,30.37,-343,-198,-125,
315,-11164,3764,-8652,30.46,26,-19,-101,
316,-11432,3868,-8640,30.41,-4,-233,53,
317,-11616,3804,-8976,30.46,-301,-507,283,
318,-11184,3720,-9276,30.55,-850,-437,266,
319,-10816,3992,-9424,30.41,-662,-321,-90,
320,-11064,3776,-9172,30.41,-363,-266,40,
321,-11368,3852,-8908,30.41,-243,-269,-41,
322,-11372,3828,-8628,30.41,-787,-255,-177,
323,-11248,3784,-8616,30.41,-889,-263,-103,
324,-11260,3692,-8636,30.46,-57,-395,-167,
325,-11324,3952,-8812,30.37,-111,-389,-35,
326,-11216,4212,-8892,30.37,-225,-342,-173,
327,-11112,3960,-8880,30.37,-312,-292,-221,
328,-11312,3824,-8796,30.51,-336,-324,5,
329,-11340,3748,-8856,30.41,-175,-347,-31,
330,-11344,3856,-8840,30.41,-75,-300,-184,
331,-11324,3828,-8800,30.41,-63,-276,-168,
332,-11284,3700,-8780,30.51,295,-540,189,
333,-11412,3840,-8948,30.41,-312,-302,-127,
334,-11168,3596,-8932,30.41,-363,12,-411,
335,-11544,3896,-8704,30.51,70,-205,-122,
336,-11608,4056,-8760,30.51,-157,-299,-38,
337,-11252,4064,-8936,30.37,-874,-147,-377,
338,-10912,3748,-8948,30.32,-727,-105,-615,
339,-11200,3516,-9036,30.41,-697,-159,-219,
340,-11396,3388,-8876,30.41,-510,-45,-237,
341,-11644,3492,-8892,30.41,-283,166,-481,
342,-11376,3676,-8808,30.41,-213,223,-505,
343,-11336,3860,-8940,30.41,-346,206,-550,
344,-11064,3840,-8884,30.41,-532,96,-451,
345,-11184,3788,-8916,30.46,-627,-49,-346,
346,-11392,3764,-8972,30.37,-648,-31,-232,
347,-11252,3644,-9108,30.55,-429,-101,-81,
348,-11304,3532,-8888,30.46,-552,-160,-177,
349,-11112,3428,-9000,30.46,-555,-278,-118,
350,-11400,3556,-8944,30.41,-562,-302,-119,
351,-11260,3672,-8764,30.51,-198,-308,-121,
352,-11056,3880,-8808,30.41,-299,-147,-67,
353,-11224,3932,-9028,30.51,-115,-239,148,
354,-11136,3940,-9080,30.41,-194,-352,286,
355,-10976,3876,-9280,30.51,-300,-391,87,
356,-10952,3608,-9244,30.41,-319,-366,53,
357,-11108,3452,-9156,30.41,-297,-186,-223,
358,-11232,3648,-8868,30.32,-248,-159,-252,
359,-11220,3848,-8860,30.41,-195,-126,-191,
360,-11144,4012,-8872,30.55,-197,-175,-223,
361,-11184,3940,-9016,30.41,-398,-157,-257,
362,-11084,3836,-9324,30.41,-335,-310,41,
363,-11184,3652,-9128,30.41,-313,-190,-68,
364,-11304,3748,-8936,30.41,-258,-162,-339,
365,-11396,3792,-8968,30.51,-586,-168,-160,
366,-11140,3756,-8808,30.46,-293,-283,-221,
367,-11092,3724,-8976,30.46,-257,-316,-164,
368,-11228,3996,-8964,30.41,-415,-319,-170,
369,-11200,3776,-9068,30.41,-228,-220,-112,
370,-11136,3556,-8712,30.32,94,-305,98,
371,-11452,3652,-8888,30.46,-5,-275,-5,
372,-11388,3724,-9224,30.41,-621,-9,-261,
373,-10968,3816,-9124,30.51,-678,-20,-249,
374,-11144,3928,-8880,30.41,-74,-311,-42,
375,-11436,3884,-8700,30.46,-191,-355,3,
376,-11388,3780,-8968,30.41,-434,-298,-104,
377,-11048,3728,-9208,30.37,-582,-199,-78,
378,-11028,3888,-9124,30.37,-149,-255,-75,
379,-11160,3796,-8976,30.46,245,-347,20,
380,-11440,3796,-8716,30.41,-270,-239,-208,
381,-11228,3900,-9432,30.51,-1232,106,-282,
382,-10996,3892,-9348,30.37,-189,-179,-262,
383,-10796,3848,-8864,30.41,-212,-102,-136,
384,-11404,3780,-8684,30.41,241,-284,76,
385,-11456,3764,-8544,30.46,149,-132,-177,
386,-11260,3908,-9012,30.37,-199,-259,55,
387,-10920,3756,-9404,30.41,1,-278,8,
388,-11184,3656,-9440,30.46,291,-328,9,
389,-11296,3704,-9220,30.41,325,-358,-125,
390,-11212,3576,-9044,30.41,-584,-187,67,
391,-10940,3640,-9288,30.37,-797,-171,-61,
392,-11124,3368,-9288,30.37,-50,-441,81,
393,-11080,3664,-8896,30.37,-159,-164,-302,
394,-11288,3792,-8812,30.37,-53,-339,-131,
395,-11292,3600,-9064,30.37,-661,-186,-11,
396,-11120,3664,-9392,30.37,-588,-166,-292,
397,-11076,3604,-9472,30.41,-796,-58,-410,
398,-11156,3784,-9260,30.32,-760,29,-507,
399,-11224,3756,-8928,30.41,-432,-115,-277,
400,-11380,3840,-8784,30.41,-488,-115,-236,
401,-11240,3748,-8836,30.37,-471,-146,-206,
402,-11192,3816,-9252,30.46,-432,-172,-108,
403,-11012,3832,-8864,30.32,59,-383,-22,
404,-10964,3848,-8908,30.37,-42,-376,-171,
405,-11240,3796,-8952,30.37,-186,-446,-119,
406,-11276,3496,-9264,30.46,-310,-364,-218,
407,-11088,3608,-9168,30.41,-160,-251,-416,
408,-11092,3596,-9040,30.41,442,-505,-107,
409,-11396,3740,-8888,30.41,-89,-324,-392,
410,-11492,3948,-9212,30.41,-889,-320,-196,
411,-11240,3520,-9476,30.41,-896,-163,-559,
412,-11116,3404,-9120,30.41,-529,-313,-390,
413,-11324,3452,-8724,30.46,-1213,-57,-709,
414,-11592,3356,-9068,30.41,-1208,-81,-663,
415,-11500,3476,-8824,30.32,-834,-218,-533,
416,-11520,3764,-8576,30.41,-892,-215,-592,
417,-11468,3728,-8676,30.46,-1031,-155,-479,
418,-11480,3844,-8748,30.41,-423,-96,-341,
419,-11620,3956,-8612,30.41,-388,-52,-269,
420,-11368,3896,-8788,30.41,-339,-397,26,
421,-11296,3668,-8988,30.37,-967,-279,-93,
422,-11332,3336,-9096,30.37,-588,-402,-23,
423,-11544,3496,-9188,30.46,-518,-208,-114,
424,-11424,3748,-8748,30.41,-379,-57,-225,
425,-11360,3864,-8612,30.51,-291,-44,-267,
426,-11368,3924,-8716,30.32,-293,-176,-157,
427,-11400,3856,-8660,30.51,-375,-126,-149,
428,-11428,3992,-8608,30.41,-380,-189,-64,
429,-11532,3768,-8808,30.41,-560,-189,-72,
430,-11440,3740,-8776,30.41,-860,-190,-199,
431,-10928,3652,-8864,30.46,-813,-110,-346,
432,-11504,3904,-8860,30.37,-535,-298,-230,
433,-11368,3972,-8840,30.46,-526,-236,-260,
434,-11432,4076,-8672,30.41,-560,-76,-454,
435,-11276,4032,-8732,30.41,-506,-136,-293,
436,-11412,3952,-8776,30.51,-399,-142,-217,
437,-11408,3792,-8724,30.41,-276,-141,-159,
438,-11480,3872,-8500,30.46,-103,-103,-212,
439,-11404,3996,-8704,30.46,-345,-112,-194,
440,-11292,3812,-8708,30.37,-220,-194,-6,
441,-11224,3820,-8796,30.37,-280,-96,-93,
442,-11276,3848,-8840,30.41,-341,-63,-133,
443,-11240,3752,-9008,30.41,-369,-83,-232,
444,-11248,3816,-9020,30.41,-250,-190,-169,
445,-11368,3684,-8856,30.32,-332,-20,-414,
446,-11324,3788,-8820,30.41,-295,-84,-339,
447,-11328,3768,-8748,30.32,-366,-129,-383,
448,-11368,3772,-9020,30.37,-585,-108,-349,
449,-11244,3752,-8844,30.46,-507,-148,-340,
450,-11216,3864,-9056,30.37,-565,-134,-327,
451,-11316,3748,-9152,30.41,-516,-200,-150,
452,-11228,3780,-9016,30.41,-470,-144,-242,
453,-11124,3844,-8996,30.41,-560,-160,-231,
454,-11288,3744,-9068,30.37,-612,-104,-264,
455,-11256,3804,-8968,30.37,-525,-179,-305,
456,-11280,3748,-8880,30.32,-539,-97,-310,
457,-11316,3672,-8888,30.51,-607,-14,-295,
458,-11264,3772,-8896,30.41,-362,-66,-248,
459,-11296,3980,-8856,30.41,-218,-121,-139,
460,-11172,3880,-8672,30.41,-319,-276,-8,
461,-11388,3680,-8960,30.37,-630,-386,99,
462,-11208,3668,-9144,30.46,-614,-287,-283,
463,-11116,3796,-9000,30.37,-278,-177,-181,
464,-11272,3792,-9096,30.32,-143,-201,-151,
465,-11328,3912,-8820,30.32,-180,-209,-170,
466,-11300,3792,-8660,30.32,-468,-146,-214,
467,-11104,3848,-8920,30.46,-382,-240,-174,
468,-11324,3852,-8996,30.46,-348,-199,-121,
469,-11248,3792,-8912,30.51,-369,-232,-107,
470,-11216,3860,-8712,30.41,-355,-148,-274,
471,-11364,3852,-8824,30.41,-407,-284,-103,
472,-11424,3788,-8832,30.37,-274,-234,-161,
473,-11172,3888,-8972,30.37,-272,-237,-105,
474,-11216,3872,-8964,30.41,-157,-273,-81,
475,-11248,3840,-8916,30.32,-221,-195,-101,
476,-11236,3936,-8896,30.41,-301,-252,-156,
477,-11116,3852,-9032,30.41,-356,-256,-137,
478,-11204,3760,-8900,30.37,-433,-183,-160,
479,-11392,3728,-9004,30.37,-317,-203,-144,
480,-11288,3836,-8772,30.41,-240,-193,-226,
481,-11428,3744,-8796,30.41,-467,-154,-111,
482,-11228,3676,-9060,30.51,-277,-167,-210,
483,-11184,3776,-8876,30.46,-325,-169,-297,
484,-11196,3676,-8988,30.37,-341,-146,-208,
485,-11344,3808,-9008,30.41,-534,-90,-332,
486,-11332,3764,-8876,30.41,-378,-165,-294,
487,-11192,3872,-8908,30.41,-412,-176,-204,
488,-11364,3784,-9012,30.41,-357,-213,-221,
489,-11276,3744,-9024,30.46,-342,-224,-226,
490,-11156,3768,-8964,30.37,-379,-245,-95,
491,-11304,3824,-8884,30.46,-365,-262,-121,
492,-11288,3596,-9112,30.37,-424,-270,-132,
493,-11204,3804,-9188,30.32,-441,-164,-235,
494,-11208,3696,-8984,30.41,-453,-172,-238,
495,-11208,3836,-9060,30.32,-520,-93,-282,
496,-11256,3708,-8756,30.41,-486,-130,-299,
497,-11180,3764,-8904,30.46,-575,-61,-303,
498,-11388,3704,-8960,30.46,-442,-174,-228,
499,-11184,3800,-8812,30.37,-516,-131,-238,
500,-11200,3892,-8920,30.46,-465,-117,-224,
501,-11260,3832,-8808,30.27,-417,-79,-247,
502,-11280,3868,-8896,30.37,-400,-113,-37,
503,-11180,3768,-9000,30.46,-511,-12,-36,
504,-11112,3744,-8940,30.37,-345,-183,52,
505,-11096,3720,-8896,30.32,-467,-161,-113,
506,-11160,3700,-9044,30.46,-484,-124,-160,
507,-11096,3828,-9120,30.27,-454,-100,-183,
508,-11156,3852,-9068,30.37,-386,-60,-258,
509,-11224,3956,-9056,30.37,-506,-4,-262,
510,-11108,3844,-8928,30.37,-376,-120,-221,
511,-11084,3996,-8988,30.46,-408,-67,-189,
512,-11088,3976,-8968,30.37,-308,-247,-97,
513,-11104,3808,-8976,30.37,-520,-232,-101,
514,-11168,3868,-8984,30.37,-279,-206,-88,
515,-11192,3932,-9104,30.37,-370,-163,-97,
516,-11064,3896,-9164,30.37,-273,-201,-96,
517,-11104,3832,-9220,30.37,-291,-224,-74,
518,-10980,3852,-8996,30.37,-442,-98,-282,
519,-11116,3844,-9152,30.37,-128,-299,-50,
520,-11284,3976,-8896,30.37,-355,-106,-251,
521,-11088,3924,-9004,30.46,-339,-126,-195,
522,-11056,3912,-9068,30.37,-244,-190,-213,
523,-11084,3844,-9056,30.32,-273,-194,-197,
524,-11208,3772,-8996,30.41,-302,-206,-97,
525,-11144,3816,-9200,30.41,-368,-208,-228,
526,-11020,3856,-9188,30.41,-289,-202,-155,
527,-10960,3896,-9052,30.32,-151,-232,-235,
528,-11044,3844,-9060,30.37,-327,-188,-162,
529,-11148,3908,-9060,30.46,-306,-175,-181,
530,-11052,3808,-9056,30.37,-412,-165,-207,
531,-11192,3868,-9168,30.32,-407,-249,-135,
532,-11176,3804,-9104,30.41,-402,-220,-150,
533,-11076,3712,-9164,30.32,-377,-224,-140,
534,-11180,3668,-9148,30.46,-266,-215,-145,
535,-11184,3732,-9076,30.37,-501,-192,-161,
536,-11076,3848,-9200,30.32,-470,-160,-214,
537,-11060,3808,-9064,30.41,-362,-223,-186,
538,-11296,3680,-9040,30.32,-440,-132,-282,
539,-11176,3760,-9032,30.46,-510,-139,-330,
540,-11124,3736,-9108,30.37,-478,-176,-332,
541,-11200,3800,-8908,30.37,-465,-166,-319,
542,-11160,3780,-9156,30.32,-380,-187,-277,
543,-11200,3836,-9008,30.41,-348,-167,-220,
544,-11176,3924,-9104,30.37,-359,-210,-176,
545,-11060,3728,-8900,30.46,-630,-21,-227,
546,-11120,3784,-8988,30.46,-252,-248,-45,
547,-11088,3636,-9192,30.37,-328,-282,3,
548,-11072,3808,-9184,30.41,-487,-178,-148,
549,-11140,3744,-9324,30.41,-321,-257,-171,
550,-11096,3768,-9268,30.27,-345,-219,-232,
551,-11156,3924,-9156,30.37,-443,-210,-115,
552,-11068,3912,-8968,30.37,-363,-166,-334,
553,-11140,3704,-8952,30.37,-413,-233,-138,
554,-11148,3772,-9116,30.32,-403,-151,-308,
555,-11180,3812,-9136,30.32,-396,-252,-204,
556,-11216,3804,-9232,30.37,-404,-254,-208,
557,-11120,3828,-9124,30.37,-370,-246,-202,
558,-11216,3892,-9064,30.37,-362,-252,-117,
559,-11248,3796,-8868,30.41,-393,-279,1,
560,-11172,3828,-9112,30.37,-432,-215,-151,
561,-11084,3968,-9160,30.41,-458,-238,-132,
562,-11084,3704,-9184,30.41,-565,-197,-209,
563,-11088,3756,-9184,30.32,-551,-204,-235,
564,-11168,3828,-9032,30.32,-702,-136,-287,
565,-11208,3852,-8976,30.27,-636,-136,-319,
566,-11240,3928,-8952,30.32,-434,-169,-307,
567,-11124,4036,-8864,30.41,-490,-146,-212,
568,-11264,3884,-8992,30.37,-447,-233,-133,
569,-11256,3912,-8888,30.37,-395,-189,-84,
570,-11184,3860,-8948,30.37,-285,-207,-109,
571,-11184,3908,-8880,30.37,-613,-157,-122,
572,-11092,3904,-9004,30.41,-413,-126,-178,
573,-11140,4028,-9128,30.41,-350,-222,-176,
574,-11056,3912,-9052,30.32,-293,-231,-117,
575,-11152,4004,-9004,30.46,-355,-232,-62,
576,-11132,3952,-9072,30.32,-348,-209,-114,
577,-11156,3832,-8996,30.46,-279,-231,-65,
578,-11204,3864,-9072,30.37,-271,-219,-104,
579,-11096,3888,-8984,30.37,-347,-214,-171,
580,-11072,3920,-9120,30.27,-341,-187,-287,
581,-11204,3832,-8932,30.41,-361,-224,-213,
582,-11172,3892,-8872,30.41,-330,-172,-271,
583,-11308,4028,-8964,30.41,-501,-130,-227,
584,-11072,3956,-9040,30.37,-309,-214,-206,
585,-11168,3932,-8868,30.27,-308,-243,-162,
586,-11108,3928,-8968,30.37,-306,-241,-159,
587,-11180,3988,-8984,30.37,-244,-293,-67,
588,-11164,3856,-8924,30.46,-306,-252,-200,
589,-11208,3760,-9152,30.32,-370,-191,-212,
590,-11120,3864,-9032,30.41,-286,-207,-197,
591,-11124,3844,-9036,30.41,-308,-186,-201,
592,-11116,3860,-9032,30.41,-312,-251,-140,
593,-11164,3944,-9008,30.37,-380,-166,-220,
594,-11164,3872,-8852,30.27,-248,-214,-233,
595,-11264,3784,-9064,30.41,-436,-168,-192,
596,-11124,3728,-8956,30.41,-379,-99,-378,
597,-11240,3796,-8968,30.32,-227,-342,-282,
598,-11236,3780,-8812,30.37,-212,-307,-254,
599,-11196,3776,-8980,30.37,68,-482,-87,
600,-11268,3812,-8956,30.32,-632,-80,-324,
601,-11188,3704,-8952,30.32,-474,-123,-259,
602,-11220,3760,-9012,30.32,-561,-79,-182,
603,-11136,3812,-9028,30.32,-775,-16,-219,
604,-11104,3892,-9072,30.32,-589,-140,-100,
605,-11180,3880,-8856,30.41,-520,-215,-121,
606,-11292,3844,-8988,30.37,-641,-155,-164,
607,-11224,3920,-8876,30.37,-449,-221,-160,
608,-11244,3836,-8880,30.37,-460,-208,-190,
609,-11212,3880,-8956,30.32,-245,-234,-136,
610,-11192,3824,-9044,30.41,-198,-280,-69,
611,-11072,3864,-8996,30.32,-264,-200,-93,
612,-11140,3852,-8980,30.32,-313,-186,-151,
613,-11140,3884,-9196,30.41,-204,-253,-108,
614,-11164,3876,-8820,30.37,85,-364,-98,
615,-11288,3736,-9084,30.41,-47,-263,-78,
616,-11192,3856,-9200,30.37,316,-183,-171,
617,-11232,3812,-9020,30.37,-269,-70,-252,
618,-11200,3824,-9040,30.18,-90,-229,-65,
619,-11212,3756,-9168,30.32,-295,-137,-298,
620,-11032,3640,-9108,30.37,-253,-200,-188,
621,-11344,3696,-9044,30.37,-494,-43,-294,
622,-11100,3664,-8864,30.27,-325,-174,-170,
623,-11068,3688,-9096,30.37,-385,-134,-177,
624,-11044,3664,-9120,30.32,-150,-308,-89,
625,-11196,3692,-9044,30.41,-328,-182,-130,
626,-11168,3724,-9136,30.32,-250,-258,-69,
627,-11116,3612,-9128,30.41,-46,-343,-43,
628,-11172,3636,-9092,30.41,-343,-183,-127,
629,-11140,3468,-9084,30.32,-205,-247,-165,
630,-11240,3708,-8604,30.37,-48,-380,-220,
631,-10980,3384,-8976,30.37,-228,-93,-305,
632,-11156,3544,-9260,30.37,-496,-23,-256,
633,-11056,3680,-9172,30.37,-202,-232,-232,
634,-11164,3640,-9140,30.32,-494,-152,-199,
635,-11156,3496,-9300,30.32,-640,-201,-162,
636,-10976,3528,-9304,30.41,-530,-205,-58,
637,-11108,3512,-8924,30.32,-974,-39,-314,
638,-11008,3680,-8940,30.32,-507,-224,-190,
639,-11376,3804,-8868,30.37,-887,-85,-211,
640,-11096,3872,-9012,30.46,-375,-331,-43,
641,-11032,3804,-8996,30.37,-620,-105,-185,
642,-11096,3644,-8928,30.37,-772,-70,-151,
643,-11044,3584,-9156,30.46,-600,-107,-113,
644,-11052,3808,-8988,30.37,-363,-172,-121,
645,-11164,3828,-9104,30.32,-331,-204,-122,
646,-11096,3788,-8880,30.41,-333,-194,-157,
647,-11016,3932,-8928,30.32,-218,-214,-176,
648,-11184,3772,-9112,30.37,-217,-244,-165,
649,-10976,3804,-8860,30.32,-129,-307,-82,
650,-11200,3708,-9088,30.32,-382,-224,-82,
651,-11096,3756,-9252,30.32,-243,-263,-156,
652,-11028,3708,-9152,30.32,-237,-285,-138,
653,-10976,3752,-9260,30.32,-207,-282,-69,
654,-11188,3732,-9032,30.41,-347,-239,-139,
655,-10988,3628,-9168,30.37,-307,-202,-240,
656,-11140,3756,-9100,30.37,-351,-204,-148,
657,-11224,3712,-9008,30.41,-396,-140,-172,
658,-11052,3816,-9196,30.41,-380,-254,-86,
659,-11108,3796,-9116,30.41,-360,-207,-151,
660,-11012,3764,-9024,30.37,-331,-209,-172,
661,-11240,3652,-9228,30.37,-407,-214,-68,
662,-11176,3636,-9196,30.27,-364,-148,-282,
663,-11128,3756,-9116,30.37,-423,-206,-38,
664,-11196,3760,-9152,30.27,-344,-152,-268,
665,-11108,3744,-9028,30.37,-256,-219,-137,
666,-11140,3756,-9036,30.27,-423,-162,-236,
667,-11116,3680,-9152,30.41,-221,-313,-54,
668,-11120,3676,-9292,30.32,-396,-157,-147,
669,-11128,3792,-9256,30.41,-396,-172,-144,
670,-11060,3708,-9124,30.32,-414,-184,-134,
671,-11028,3852,-9244,30.37,-435,-144,-206,
672,-11204,3700,-9256,30.46,-648,-97,-247,
673,-11028,3732,-9188,30.37,-569,-67,-315,
674,-11032,3844,-9156,30.27,-416,-165,-291,
675,-11028,3632,-9180,30.46,-410,-149,-250,
676,-11172,3772,-8920,30.37,-507,-151,-214,
677,-11116,3784,-8988,30.32,-362,-204,-181,
678,-11092,3780,-9308,30.41,-472,-109,-197,
679,-11172,3808,-9088,30.32,-571,-89,-173,
680,-11032,3616,-9036,30.41,-420,-211,-115,
681,-11232,3780,-9136,30.27,-316,-218,-86,
682,-11096,3860,-9096,30.37,-306,-244,-96,
683,-11244,3752,-9416,30.37,-351,-269,-98,
684,-11016,3872,-9236,30.27,-265,-315,-44,
685,-11088,3960,-8964,30.37,-126,-281,-76,
686,-11028,3744,-9084,30.37,-273,-174,-163,
687,-11284,3788,-9080,30.27,-255,-286,-25,
688,-11024,3932,-9052,30.37,-322,-268,-22,
689,-11044,3816,-9208,30.37,-339,-197,-76,
690,-11028,3832,-9160,30.27,-264,-249,-80,
691,-11080,3860,-8948,30.27,-312,-224,-75,
692,-11120,3812,-9080,30.32,-293,-181,-167,
693,-10968,3804,-9032,30.37,-259,-278,-64,
694,-11192,3972,-8996,30.37,-198,-238,-112,
695,-11124,3780,-9176,30.37,-353,-203,-130,
696,-11012,3776,-9152,30.32,-222,-227,-167,
697,-11056,3824,-9156,30.32,-258,-224,-111,
698,-11200,3832,-9148,30.22,-306,-183,-131,
699,-11000,3820,-9144,30.32,-326,-230,-94,
700,-10992,3812,-9212,30.32,-340,-200,-211,
701,-11136,3784,-9124,30.32,-307,-282,-65,
702,-11088,3920,-9212,30.32,-373,-205,-131,
703,-11208,3800,-9140,30.32,-399,-199,-179,
704,-11032,3796,-9124,30.32,-355,-199,-231,
705,-11060,3900,-8988,30.37,-241,-196,-227,
706,-11132,3796,-9112,30.46,-434,-220,-32,
707,-11076,3772,-9164,30.41,-316,-228,-178,
708,-11052,3820,-9272,30.27,-286,-205,-194,
709,-11108,3720,-9276,30.37,-338,-149,-190,
710,-11076,3692,-9208,30.27,-394,-197,-151,
711,-11016,3816,-9144,30.37,-425,-179,-325,
712,-11100,3700,-9168,30.27,-544,-104,-378,
713,-11104,3804,-9076,30.32,-566,-110,-349,
714,-11148,3804,-9056,30.41,-504,-129,-339,
715,-11172,3828,-9168,30.32,-493,-139,-325,
716,-11188,3832,-9008,30.32,-431,-208,-220,
717,-11208,3908,-8900,30.22,-344,-285,-123,
718,-11164,3728,-9052,30.27,-397,-300,-14,
719,-11060,3940,-9032,30.27,-281,-296,-3,
720,-11112,3856,-9092,30.32,-332,-348,-1,
721,-11140,3812,-9164,30.32,-338,-302,-118,
722,-11188,3716,-9096,30.41,-333,-320,-111,
723,-11220,3776,-9024,30.32,-359,-253,-136,
724,-11168,3732,-9016,30.37,-140,-191,-186,
725,-11100,3804,-9096,30.27,-278,-158,-238,
726,-11072,3892,-9212,30.32,-260,-190,-186,
727,-11044,3880,-9144,30.32,-264,-238,-181,
728,-11088,3792,-9268,30.37,-326,-210,-151,
729,-11272,3704,-9104,30.37,-401,-192,-130,
730,-11132,3720,-9040,30.37,-253,-213,-128,
731,-11128,3820,-8932,30.41,-226,-210,-120,
732,-11088,3868,-9176,30.41,-269,-201,-124,
733,-11112,3908,-9236,30.32,-323,-288,54,
734,-10940,3872,-9148,30.32,-376,-279,-22,
735,-11164,3700,-9104,30.22,-306,-194,-115,
736,-11196,3720,-9012,30.32,-306,-174,-166,
737,-11068,3824,-9052,30.32,-244,-145,-195,
738,-11068,3800,-9016,30.27,-301,-152,-213,
739,-11024,3900,-9248,30.27,-438,-163,-215,
740,-10996,3752,-9212,30.32,-356,-180,-305,
741,-11008,3736,-9208,30.32,-543,-147,-223,
742,-11100,3712,-9140,30.37,-444,-110,-316,
743,-11128,3844,-9196,30.27,-460,-124,-300,
744,-11088,3880,-9356,30.37,-442,-137,-276,
745,-11148,3680,-9224,30.32,-482,-105,-244,
746,-11120,3760,-9004,30.32,-414,-115,-264,
747,-11064,3772,-9128,30.27,-392,-154,-135,
748,-11120,3792,-9172,30.37,-326,-155,-144,
749,-11012,3884,-9028,30.41,-332,-83,-173,
750,-11032,3920,-9188,30.32,-291,-144,-130,
751,-10976,3812,-9140,30.32,-169,-249,-28,
752,-11168,3672,-9248,30.41,-439,-177,-59,
753,-11004,3700,-9284,30.32,-338,-219,-87,
754,-11000,3720,-9004,30.22,-273,-259,-113,
755,-11120,3720,-9012,30.32,-190,-201,-142,
756,-11152,3868,-9064,30.27,-357,-234,-8,
757,-10964,3812,-9300,30.41,-354,-237,-75,
758,-10948,3828,-9272,30.41,-270,-253,-143,
759,-10976,3684,-9176,30.27,-298,-137,-345,
760,-11196,3620,-9076,30.27,-286,-277,-168,
761,-11124,3732,-9236,30.32,-461,-167,-220,
762,-11000,3756,-9288,30.32,-309,-260,-189,
763,-11076,3756,-9164,30.41,-309,-382,-8,
764,-11064,3740,-9128,30.32,-236,-311,-117,
765,-11032,3812,-9208,30.32,-240,-274,-105,
766,-11072,3664,-9376,30.13,-239,-254,-36,
767,-11108,3732,-9360,30.32,-294,-224,-103,
768,-11032,3796,-9120,30.37,-353,-193,-190,
769,-11160,3676,-9188,30.27,-349,-177,-176,
770,-10984,3764,-9088,30.32,-432,-186,-195,
771,-11020,3756,-9296,30.41,-571,-136,-273,
772,-11012,3772,-9140,30.32,-573,-142,-335,
773,-10988,3964,-9260,30.37,-555,-206,-279,
774,-11040,3868,-9132,30.37,-629,-159,-257,
775,-11112,3776,-9120,30.37,-634,-186,-329,
776,-11120,3704,-9196,30.32,-689,-150,-300,
777,-11044,3784,-9060,30.32,-456,-186,-331,
778,-11076,3896,-9020,30.32,-547,-120,-254,
779,-11096,3988,-9100,30.27,-546,-184,-137,
780,-10928,3876,-9216,30.37,-519,-173,-240,
781,-11208,3840,-9100,30.37,-474,-151,-267,
782,-11216,3832,-9016,30.32,-469,-139,-273,
783,-11128,3832,-9036,30.32,-390,-178,-182,
784,-11004,3996,-8956,30.37,-412,-218,-194,
785,-11016,3864,-9104,30.27,-378,-249,-143,
786,-11120,3820,-9096,30.37,-299,-279,-135,
787,-11120,3772,-9144,30.32,-330,-314,50,
788,-11020,3844,-9000,30.37,-270,-274,-105,
789,-11028,3724,-9104,30.41,-275,-191,-234,
790,-11120,3772,-9132,30.32,-228,-216,-158,
791,-11040,3908,-9232,30.32,-323,-206,-150,
792,-10944,3800,-8984,30.27,-424,-74,-428,
793,-11152,3844,-9004,30.37,-407,-134,-223,
794,-11184,3892,-9064,30.37,-290,-249,-54,
795,-11080,3936,-9116,30.37,-399,-237,-51,
796,-11068,3872,-9148,30.37,-400,-145,-151,
797,-11108,3892,-9120,30.41,-376,-222,-41,
798,-11152,3900,-9096,30.32,-424,-251,15,
799,-11020,3904,-9164,30.37,-447,-209,-79,
800,-10912,3848,-9080,30.27,-462,-180,-101,
801,-11136,3924,-9188,30.22,-273,-241,-85,
802,-11028,3920,-8996,30.32,-358,-207,-130,
803,-11076,3872,-9144,30.32,-386,-176,-103,
804,-10988,3964,-9144,30.32,-303,-144,-178,
805,-11052,3916,-9188,30.37,-369,-135,-219,
806,-10988,4008,-9256,30.37,-481,-154,-162,
807,-10976,4016,-9160,30.41,-507,-173,-113,
808,-10980,3920,-9084,30.32,-526,-205,-202,
809,-11012,3960,-9104,30.32,-652,-170,-266,
810,-10920,4016,-9244,30.37,-541,-135,-317,
811,-11048,4028,-9184,30.32,-468,-158,-242,
812,-11016,4016,-9120,30.32,-502,-97,-346,
813,-10892,4028,-9108,30.32,-490,-123,-256,
814,-11064,3976,-9260,30.27,-475,-167,-275,
815,-11032,3976,-9176,30.27,-507,-136,-309,
816,-10976,4100,-9152,30.22,-440,-201,-249,
817,-10920,4028,-9132,30.32,-440,-228,-192,
818,-11028,3992,-9120,30.32,-244,-306,-179,
819,-10920,4024,-8832,30.46,-280,-255,-234,
820,-11212,3880,-9024,30.32,-378,-231,-64,
821,-10908,3932,-9052,30.32,-140,-325,-116,
822,-10992,4072,-9188,30.32,-242,-273,-117,
823,-10920,3900,-9244,30.27,-265,-311,-173,
824,-11012,3980,-9256,30.37,-374,-314,-60,
825,-11108,3952,-9116,30.27,-378,-275,-229,
826,-10980,3816,-9084,30.32,-346,-307,-163,
827,-11168,3880,-9064,30.22,-288,-299,-87,
828,-11132,3992,-9028,30.32,-424,-201,-239,
829,-11056,4064,-9044,30.32,-302,-265,-166,
830,-11108,3964,-9068,30.37,-288,-260,-133,
831,-11200,4048,-8916,30.37,-316,-317,-25,
832,-11024,3996,-9044,30.37,-360,-214,-140,
833,-11140,3948,-9112,30.37,-248,-207,-144,
834,-10936,3908,-8980,30.22,-277,-172,-145,
835,-11180,3980,-9156,30.32,-326,-196,-138,
836,-11076,3996,-9008,30.27,-232,-251,-129,
837,-11068,4052,-8900,30.37,-347,-160,-130,
838,-11112,3828,-9056,30.32,-333,-221,-65,
839,-11132,3976,-9072,30.32,-340,-171,-183,
840,-11084,4008,-9216,30.32,-445,-133,-171,
841,-11068,3996,-9064,30.32,-396,-262,72,
842,-11048,3896,-9004,30.32,-333,-253,-24,
843,-11112,4012,-9000,30.41,-510,-226,-35,
844,-10992,4056,-9304,30.32,-514,-214,-128,
845,-10904,3916,-9176,30.32,-506,-200,-211,
846,-11080,4044,-9120,30.32,-548,-168,-115,
847,-11176,4036,-8948,30.32,-550,-201,-187,
848,-11152,4152,-8896,30.27,-548,-154,-313,
849,-11120,4160,-9000,30.27,-625,-134,-248,
850,-11088,4028,-8984,30.32,-919,95,-398,
851,-11028,4144,-9044,30.27,-404,-247,-183,
852,-11000,4128,-9044,30.32,-440,-161,-266,
853,-11068,4144,-8796,30.32,-429,-166,-248,
854,-11148,4156,-9040,30.37,-375,-152,-142,
855,-10984,4088,-8924,30.27,-332,-176,-203,
856,-11008,4280,-9020,30.37,-356,-182,-209,
857,-11064,4008,-9100,30.32,-297,-190,-133,
858,-11140,4188,-9080,30.32,-308,-178,-146,
859,-11124,4060,-8960,30.32,-317,-204,-150,
860,-11076,4148,-9032,30.37,-308,-204,-197,
861,-11072,4132,-9108,30.37,-392,-189,-176,
862,-11152,4016,-9148,30.27,-389,-239,-198,
863,-11116,4076,-9100,30.37,-385,-202,-277,
864,-11000,4056,-8896,30.32,-295,-271,-161,
865,-11132,4088,-8864,30.22,-198,-260,-69,
866,-11088,3976,-8892,30.32,-280,-362,142,
867,-11088,4060,-9136,30.41,-237,-265,-72,
868,-11092,4048,-9292,30.27,-313,-240,-111,
869,-11012,3976,-9204,30.32,-289,-189,-161,
870,-11144,4060,-9124,30.32,-342,-175,-201,
871,-10968,4092,-9048,30.37,-395,-98,-371,
872,-11136,4072,-8996,30.41,-357,-124,-254,
873,-11160,4080,-9044,30.27,-352,-141,-259,
874,-11008,4068,-9152,30.27,-369,-178,-251,
875,-11212,4080,-9052,30.27,-335,-233,-172,
876,-10952,3968,-8936,30.37,-302,-210,-153,
877,-11228,4080,-9072,30.22,-326,-270,-43,
878,-11028,4048,-9044,30.32,-297,-265,-99,
879,-10948,3972,-9240,30.27,-231,-273,-109,
880,-11056,3768,-9108,30.32,-80,-338,-15,
881,-11040,4036,-9252,30.37,-326,-250,-63,
882,-11120,3824,-9276,30.37,-388,-279,-121,
883,-11092,3928,-9188,30.27,-757,-117,-243,
884,-11096,4100,-9228,30.22,-496,-163,-244,
885,-11100,4280,-8732,30.32,-640,-140,-273,
886,-11204,4356,-8824,30.41,-534,-318,-30,
887,-11424,4148,-8988,30.32,-719,-366,90,
888,-11300,4200,-8692,30.37,-388,-612,207,
889,-11428,4196,-9008,30.27,-837,-589,199,
890,-11328,4212,-9048,30.27,-930,-630,73,
891,-11216,4212,-9320,30.37,-1200,-510,62,
892,-11032,4108,-9152,30.37,-974,-473,22,
893,-11140,4160,-9044,30.32,-1179,-149,-251,
894,-11020,4308,-8960,30.18,-576,26,-316,
895,-11116,4508,-8524,30.37,-188,251,-378,
896,-11428,4576,-8512,30.27,-379,523,-181,
897,-11316,4636,-8392,30.37,-118,308,141,
898,-11096,4700,-8600,30.32,-129,329,188,
899,-10864,4612,-8640,30.32,-160,239,143,
900,-11000,4500,-9012,30.27,-232,12,378,
901,-10820,4292,-9204,30.41,312,-121,442,
902,-10572,4680,-9092,30.32,377,180,95,
903,-10480,4744,-9160,30.32,594,80,152,
904,-10384,4880,-9132,30.27,110,164,-36,
905,-10576,4804,-9288,30.41,-95,68,50,
906,-10512,4848,-9512,30.27,-187,84,-120,
907,-10492,4888,-9232,30.32,-323,-38,-4,
908,-10568,4624,-9344,30.27,-389,5,-160,
909,-10612,4608,-9112,30.32,-518,-33,-211,
910,-10652,4424,-9132,30.32,-347,-211,-143,
911,-10660,4436,-9424,30.32,-316,-319,17,
912,-10528,4492,-9384,30.32,-223,-270,-232,
913,-10648,4616,-9516,30.32,-221,-167,-321,
914,-10388,4708,-9404,30.32,-264,-130,-270,
915,-10568,4596,-9364,30.32,-419,-215,-120,
916,-10688,4488,-9648,30.46,-334,-288,-25,
917,-10732,4400,-9288,30.27,-304,-158,-266,
918,-10680,4308,-9096,30.27,-360,-177.00¸                           ,,
919,-9840,3884,-7292,30.27,5925,-5853,-716,
920,-12552,4176,-8284,30.32,8178,-6642,2848,
921,-16900,3164,-9016,30.22,3389,-4689,5797,
922,-15156,2568,-9528,30.32,5286,-4818,3965,
923,-12460,4308,-10340,30.22,1579,-1212,371,
924,-10944,2476,-7932,30.37,3733,-1859,496,
925,-13232,2696,-8588,30.37,597,-1799,-1284,
926,-13748,2632,-10252,30.37,3822,-3706,833,
927,-13112,2004,-9508,30.37,916,-1938,-1112,
928,-11740,3632,-8564,30.37,-224,-171,-2164,
929,-11228,3464,-9000,30.27,-2029,488,-1866,
930,-11280,2384,-9736,30.37,-1700,653,-1199,
931,-12600,3548,-8008,30.27,320,1086,490,
932,-12516,3444,-7084,30.32,-855,1982,-1035,
933,-12244,3004,-8880,30.32,-1162,3388,-492,
934,-11872,3204,-8712,30.37,-716,2409,620,
935,-10880,3436,-9076,30.32,-1309,3561,200,
936,-10196,3048,-9456,30.32,1025,3116,292,
937,-9904,3148,-9764,30.27,1334,3694,-338,
938,-9600,2800,-9908,30.37,1481,3142,-289,
939,-10032,2632,-10372,30.27,1979,2732,234,
940,-8332,2724,-11128,30.41,1127,3818,541,
941,-9488,2116,-11040,30.41,4532,4978,-152,
942,-9312,552,-11088,30.32,4340,5305,-1260,
943,-10824,1484,-11628,30.22,4165,6287,-1743,
944,-9180,-200,-13212,30.32,3894,7401,-1226,
945,-7152,-1036,-13828,30.37,335,8528,-552,
946,-4304,8,-14348,30.27,-1852,8744,-894,
947,-4532,1472,-15032,30.27,-332,4521,-877,
948,-4184,1152,-14764,30.37,-3276,3805,129,
949,-1736,1120,-14488,30.37,-1761,2546,1322,
950,-1240,236,-14868,30.32,362,1481,610,
951,-1300,-52,-15124,30.32,79,1411,-156,
952,-912,-176,-14484,30.37,108,1315,-973,
953,-1168,-284,-14868,30.22,28,416,-1339,
954,-1284,-616,-15408,30.27,-517,846,-1776,
955,-1408,-560,-16272,30.37,-2403,1933,-3319,
956,-1348,2184,-15568,30.27,-5188,3540,-3814,
957,-1020,2168,-13964,30.32,-1982,401,-2314,
958,-1640,1264,-15664,30.22,-1365,474,-1746,
959,684,2996,-14532,30.32,-3895,1372,-3356,
960,844,2808,-11868,30.22,13,-2618,-1219,
961,2024,2356,-17500,30.27,1247,-1948,1379,
962,-736,1892,-11400,30.37,-5312,1026,-2599,
963,616,3044,-13832,30.41,-443,-357,2364,
964,476,80,-15704,30.37,1980,558,745,
965,-720,1080,-16032,30.32,742,1778,-292,
966,-3200,1712,-13220,30.41,-218,552,923,
967,-2600,2084,-13340,30.32,-3799,429,1947,
968,-3712,3376,-14656,30.32,-2992,-359,3892,
969,-2236,3492,-15416,30.37,551,-151,2111,
970,444,2940,-13044,30.32,763,38,2473,
971,2388,1604,-19328,30.37,4359,-146,1719,
972,192,1032,-13592,30.37,-1929,755,-558,
973,-452,1628,-15428,30.22,748,-866,8,
974,-588,1424,-14292,30.32,-697,649,-934,
975,-404,1756,-14508,30.27,-325,174,-402,
976,-276,1604,-14788,30.32,-184,618,-387,
977,-280,1604,-14476,30.27,-516,576,-409,
978,-276,1676,-14772,30.32,234,385,-59,
979,-48,1564,-14940,30.27,281,153,2,
980,-324,1548,-14464,30.22,-517,212,100,
981,112,1636,-14820,30.32,-545,397,345,
982,-140,1148,-14816,30.32,-252,638,-464,
983,820,1416,-14052,30.32,-1074,1147,-442,
984,1672,2028,-15424,30.27,-345,294,-158,
985,1484,1688,-14468,30.32,-561,98,-585,
986,600,1648,-14772,30.37,-564,-364,-982,
987,356,1300,-14256,30.32,565,-505,-789,
988,180,1552,-15588,30.37,71,-1521,-870,
989,-252,1664,-14244,30.27,-40,-1224,-780,
990,-156,1816,-14872,30.41,-230,-578,-674,
991,108,1592,-14756,30.22,96,-329,140,
992,4,1408,-14956,30.22,948,-976,728,
993,404,1596,-15024,30.37,-247,-700,111,
994,-184,1496,-14760,30.32,-1037,-768,-323,
995,44,2032,-15040,30.32,-1070,-713,-17,
996,20,1440,-15100,30.32,-587,-571,293,
997,-264,792,-12244,30.37,221,-1227,339,
998,-296,1288,-12640,30.32,-406,-3088,2362,
999,-1252,1588,-14708,30.32,347,-1462,-134,
1000,-740,1620,-15028,30.32,-923,-522,1019,
1001,-1100,1256,-14820,30.27,158,-592,353,
1002,-924,1392,-14912,30.32,-1754,-332,674,
1003,-656,2024,-14712,30.41,-2043,-966,409,
1004,-1128,1880,-14412,30.37,-1610,-1306,209,
1005,-1116,1960,-14560,30.32,-1349,-686,144,
1006,-1296,2148,-14640,30.37,-1542,-412,34,
1007,-936,2392,-14448,30.27,-1629,-463,-129,
1008,-1236,2664,-14400,30.37,-1623,-658,-392,
1009,-956,2620,-13564,30.37,-1074,-601,-610,
1010,-848,3068,-14432,30.37,-1020,-849,-396,
1011,-1620,2900,-14632,30.37,-609,-381,-298,
1012,-1608,2872,-14500,30.37,-496,80,-155,
1013,-1460,3112,-14416,30.32,-778,-158,-514,
1014,-1516,3204,-14368,30.32,-1073,-188,-604,
1015,-1388,3368,-14368,30.32,-817,-356,-498,
1016,-1564,3304,-14128,30.32,-759,-335,-579,
1017,-1632,3236,-14304,30.41,-331,-168,-385,
1018,-1660,3188,-14300,30.32,-371,-287,-466,
1019,-1672,3076,-14432,30.32,-7,-380,-179,
1020,-1636,3280,-14016,30.41,-465,-234,-217,
1021,-1644,3396,-14212,30.32,-574,-147,-209,
1022,-1692,3304,-14220,30.32,-312,-100,-119,
1023,-1564,3212,-14344,30.41,-213,-161,-158,
1024,-1480,3128,-14312,30.37,-510,-168,-242,
1025,-1672,3180,-14140,30.37,-390,-150,-166,
1026,-1616,3136,-14476,30.27,-800,-225,-263,
1027,-1512,3464,-14284,30.46,-1517,-286,-370,
1028,-1408,3352,-14288,30.32,-1113,-234,-733,
1029,-1728,3944,-14144,30.37,-954,-134,-676,
1030,-1632,3660,-14204,30.37,-408,-301,-323,
1031,-1720,3588,-14016,30.37,-280,-195,-244,
1032,-1908,3572,-14348,30.37,-593,58,-301,
1033,-1644,4212,-14280,30.27,-844,-180,-172,
1034,-1732,4088,-13864,30.37,-761,-118,-354,
1035,-1736,3860,-13928,30.27,-81,-178,-103,
1036,-1772,3716,-14172,30.37,-12,-262,-142,
1037,-1776,3532,-14132,30.37,47,-168,-80,
1038,-1436,3624,-14272,30.32,-481,-195,-313,
1039,-1804,3592,-14348,30.41,-806,-147,-225,
1040,-1656,3632,-14232,30.37,-587,-109,-296,
1041,-1500,3780,-14304,30.27,-870,319,-468,
1042,-1604,3728,-14132,30.27,-834,71,-433,
1043,-1556,3832,-14088,30.41,-417,14,-231,
1044,-1568,3812,-14208,30.32,-551,-132,-296,
1045,-1424,3792,-14072,30.32,-642,596,-502,
1046,-1628,3860,-14260,30.32,-402,-95,-135,
1047,-1420,3828,-14212,30.41,-489,-131,-201,
1048,-1536,3776,-14100,30.22,-414,-84,-174,
1049,-1372,3944,-14256,30.41,-450,-150,-59,
1050,-1484,3836,-14104,30.32,-433,-287,-206,
1051,-1592,3888,-14124,30.41,-272,-27,-134,
1052,-1356,3896,-14292,30.32,-235,-143,-126,
1053,-1440,3912,-14128,30.32,-325,-129,-90,
1054,-1356,3916,-14152,30.32,-384,-213,-184,
1055,-1448,3936,-14056,30.32,-491,-184,-208,
1056,-1348,3896,-14280,30.32,-461,-153,-190,
1057,-1440,3944,-14236,30.41,-303,-148,-113,
1058,-1388,3776,-14192,30.41,-298,ˇ                                  ,,
Sample,aX,aY,az,Temp,gX,gY,gz                                                   ,
1,4568,7096,-19108,30.51,3513,-5656,2569,
2,3740,4908,-14680,30.55,-1732,659,-943,
3,4308,5228,-12564,30.41,-705,-1597,-2107,
4,2412,5052,-15148,30.41,501,-2080,-597,
5,2124,4396,-12692,30.41,737,-2342,-459,
6,2344,4180,-14540,30.37,1987,-5057,-2141,
7,2376,4212,-14676,30.37,2385,-2595,-1213,
8,1700,3580,-14944,30.46,817,965,-1046,
9,1612,3976,-13600,30.41,-696,-1402,1065,
10,760,3092,-15228,30.41,1271,233,-92,
11,1604,2948,-13584,30.41,792,-255,1121,
12,1764,2832,-15140,30.46,1423,-1412,810,
13,1624,2816,-14668,30.46,-710,-412,-852,
14,5640,4244,-14576,30.41,-1495,2124,-1178,
15,1496,3132,-14660,30.46,-520,389,-525,
16,2400,2940,-14840,30.41,-801,-704,-442,
17,2496,3036,-14636,30.41,-690,-647,-1074,
18,2016,2752,-14564,30.6,-805,-342,-1253,
19,1720,3408,-14324,30.51,-733,-801,-1235,
20,1408,3164,-14748,30.51,-683,-1134,-801,
21,1520,2908,-14496,30.41,-1135,-1331,-655,
22,1188,3704,-14796,30.41,-617,-1699,-243,
23,2176,3948,-14796,30.41,-266,-1443,-977,
24,-256,2052,-13104,30.46,1630,536,-1341,
25,220,3824,-15184,30.46,-2641,797,-2117,
26,960,3580,-14484,30.37,98,-1702,191,
27,1540,3712,-14460,30.55,-1071,-1692,-726,
28,1092,2464,-14516,30.46,-254,-474,-920,
29,412,3120,-14116,30.41,-831,-367,-654,
30,476,3652,-14412,30.46,-327,-746,-395,
31,612,3628,-14680,30.41,-921,-469,-694,
32,364,3940,-14032,30.51,-692,-546,-568,
33,252,3616,-14420,30.46,-813,-735,-425,
34,336,3604,-14460,30.51,-841,-1149,-471,
35,664,3776,-14508,30.46,-1133,-962,-904,
36,192,4068,-13976,30.55,-983,-525,-1065,
37,-360,3832,-14320,30.41,-770,-432,-803,
38,12,4020,-14380,30.41,-576,-535,-518,
39,272,4060,-14400,30.46,-596,-259,-550,
40,108,4064,-14212,30.41,-304,25,-580,
41,36,3660,-14412ˇ                                                        ,,,,,