0.37,456,12680,-8376,30.32,-263,-293,-90,
457,-464,12676,-84,-8412,30.41,-186,-240,-199
456,-456,12680,-8376,30.32,-263,-293,-90,
457,-464,12676,-84,-8412,30.41,-186,-240,-199
456,-456,12680,-8376,30.32,-263,-293,-90,
457,-464,12676,-8,,,,,
Sample,aX,aY,az,Temp,gX,gY,gz                                                   ,
1,-4236,18380,4912,30.32,815,-2957,278,
2,-3308,17476,3668,30.37,2568,254,-690,
3,-2092,22464,-536,30.37,-12747,9249,-10000,
4,-6264,16292,5488,30.41,-2101,1180,-8388,
5,-8188,13956,2152,30.41,4869,-6424,-2621,
6,-5904,15808,1768,30.41,-3358,-3616,3612,
7,-5616,16244,1580,30.41,-2654,-3688,4605,
8,-5316,13628,2428,30.32,-3467,-2165,2123,
9,-4808,16076,3992,30.32,144,-4075,662,
10,-3908,14516,3916,30.37,3265,-5945,806,
11,-3936,15912,2224,30.37,214,-3827,-1009,
12,-5248,16148,4192,30.37,-1477,-4325,-1083,
13,-4828,15188,3496,30.27,98,-3902,531,
14,-4432,14980,3992,30.41,-234,-1193,446,
15,-4552,15324,4252,30.32,-44,-628,114,
16,-4400,15232,3740,30.32,-202,-600,894,
17,-4004,15764,3804,30.46,-295,-289,1108,
18,-3968,15796,3596,30.37,-210,155,757,
19,-3660,15800,3612,30.32,-268,288,214,
20,-3336,15364,3964,30.41,-544,-49,42,
21,-3388,15908,4048,30.37,-152,-263,-162,
22,-3840,15620,3740,30.32,-392,261,-460,
23,-4068,15820,3492,30.37,-291,479,-239,
24,-4104,15492,3444,30.32,-320,407,-164,
25,-4232,15548,3688,30.41,-764,265,18,
26,-4008,15560,3724,30.41,-589,151,95,
27,-3892,15516,3684,30.32,-473,-57,9,
28,-3956,15488,3772,30.22,-413,-50,-171,
29,-4112,15440,3756,30.37,-427,-92,-32,
30,-4012,16112,3848,30.32,-278,-165,38,
31,-3844,15252,3716,30.27,-359,-106,-130,
32,-4184,15284,3996,30.41,-295,-400,-197,
33,-4120,15624,3676,30.41,32,-1189,227,
34,-4132,15824,3748,30.37,339,-1313,304,
35,-3864,16172,3336,30.41,42,-1416,216,
36,-3976,15544,3784,30.41,-472,-900,-108,
37,-3736,15584,3720,30.41,-206,-1001,154,
38,-3628,15724,3668,30.37,-468,-574,-94,
39,-3600,15632,3692,30.41,-401,-543,-113,
40,-3488,15612,3740,30.32,-575,,,
Sample,aX,aY,az,Temp,gX,gY,gz                                                   ,
1,-3764,15672,4004,30.32,-619,-588,-164,
2,-3696,15612,4392,30.37,-673,-557,-490,
3,-3744,15684,3924,30.32,-539,-554,-390,
4,-4000,15700,4364,30.37,-838,-393,-849,
5,-4200,15272,4228,30.32,-460,-450,-316,
6,-4288,15616,4032,30.41,-546,-347,-420,
7,-4064,15272,4272,30.37,-907,-69,-628,
8,-4172,15592,4360,30.32,-130,-757,89,
9,-4096,15312,4248,30.32,-647,-320,-185,
10,-4068,15572,4096,30.27,-1175,5,-321,
11,-4568,15804,4796,30.32,-1761,-400,-327,
12,-4132,15592,5152,30.32,-1081,-404,-1174,
13,-4560,15004,4528,30.41,-845,-470,-758,
14,-4292,15676,4848,30.41,-824,-866,-554,
15,-4588,15548,5128,30.37,-1052,-659,-1176,
16,-4444,14904,4944,30.32,-386,17,-1537,
17,-4904,15248,5256,30.37,-763,-188,-1306,
18,-4908,15128,5044,30.37,-822,-453,-1005,
19,-5192,14772,5104,30.27,-1193,33,-1131,
20,-5268,14924,5476,30.32,-1066,262,-698,
21,-5164,15180,5332,30.32,-888,-284,-134,
22,-5116,14576,5272,30.37,-635,-454,-673,
23,-5356,14796,5456,30.27,-806,-18,-933,
24,-5408,14960,5488,30.41,-506,-297,-776,
25,-5524,14856,5616,30.32,-379,-107,-522,
26,-5844,14644,5520,30.37,-303,-125,-615,
27,-5448,14716,5400,30.37,-329,-104,-538,
28,-5508,14588,5520,30.22,-431,-18,-427,
29,-5540,14848,5436,30.41,-201,-129,101,
30,-5588,14600,5444,30.37,-64,-179,-10,
31,-5552,14620,5448,30.41,-289,-4,-132,
32,-5532,14912,5384,30.32,-361,68,-135,
33,-5616,14736,5332,30.37,-254,-6,-27,
34,-5532,14896,5156,30.37,-259,82,-133,
35,-5692,14888,5172,30.41,-872,214,-511,
36,-5572,14532,5508,30.37,-1014,347,-680,
37,-5632,14600,5420,30.27,-279,-11,1,
38,-5788,14760,5228,30.37,-441,325,-322,
39,-5704,14880,5740,30.32,-370,-227,82,
40,-5792,14600,5296,30.37,-230,-3,-94,
41,-5708,14800,5172,30.37,-302,-103,128,
42,-5472,14648,5144,30.32,-419,142,-93,
43,-5648,14744,5208,30.37,-313,-8,133,
44,-5776,15000,5332,30.27,-254,-124,-24,
45,-5616,14704,5196,30.32,-546,0,-324,
46,-5548,14632,5456,30.27,-423,-85,-241,
47,-5660,14748,5204,30.37,-97,-199,-68,
48,-5476,14900,5124,30.41,-201,-225,-62,
49,-5612,14768,5120,30.37,-209,-258,-42,
50,-5652,14488,5144,30.32,-274,-491,143,
51,-5636,14628,5132,30.37,-447,-9,-153,
52,-5432,14844,5420,30.32,-237,-379,21,
53,-5276,14804,4908,30.27,-415,-291,28,
54,-5480,14828,5412,30.37,-242,-50,-207,
55,-5572,14936,5096,30.22,-270,-153,-144,
56,-5488,14768,5140,30.32,-412,-59,-299,
57,-5596,14760,5164,30.37,-203,-504,205,
58,-5272,14860,5248,30.41,-452,-434,79,
59,-5460,14680,5212,30.27,-681,-18,-396,
60,-5184,14912,5188,30.32,-580,-371,-128,
61,-5496,14712,5416,30.27,-626,113,-523,
62,-5532,14704,5324,30.37,-334,193,-462,
63,-5672,14756,5396,30.32,-273,-201,-134,
64,-5876,14512,5268,30.37,-192,-260,32,
65,-5508,15220,5168,30.32,-375,-689,457,
66,-5260,14604,5080,30.27,-290,-174,-32,
67,-5220,14824,5268,30.32,-385,47,-242,
68,-5464,14748,5344,30.37,-464,164,-368,
69,-5560,14884,5484,30.32,-272,52,-132,
70,-5712,14612,5232,30.37,-271,48,-5,
71,-5508,14728,5244,30.32,-20,-18,219,
72,-4996,14984,5168,30.37,-10,-279,315,
73,-5128,14876,4896,30.32,-207,348,-309,
74,-5404,14872,5036,30.27,-461,455,-444,
75,-5572,14732,5152,30.32,-184,195,-216,
76,-5480,14940,4884,30.41,-230,43,-99,
77,-5416,14856,4892,30.32,-413,52,-5,
78,-5276,14928,5028,30.22,-531,-34,-53,
79,-5404,14876,5032,30.27,-456,24,-127,
80,-5516,14844,5032,30.37,-355,-97,-193,
81,-5432,14936,4904,30.32,-400,-110,-129,
82,-5456,14936,4884,30.32,-398,-206,6,
83,-5404,14792,4956,30.32,-390,-74,-166,
84,-5452,14980,4864,30.37,-555,-39,-191,
85,-5468,14828,5020,30.41,-395,-250,-178,
86,-5480,14760,4944,30.32,-454,-106,-153,
87,-5536,14828,5364,30.37,-491,-287,-37,
88,-5376,14908,4948,30.41,-352,-229,-199,
89,-5412,14860,5128,30.32,-399,-206,-137,
90,-5392,14876,5116,30.37,-337,-252,-215,
91,-5412,14836,5192,30.27,-350,-79,-170,
92,-5428,14840,5076,30.22,-274,-231,-48,
93,-5332,14796,5196,30.37,-294,-34,-207,
94,-5296,14848,5100,30.32,-359,245,-290,
95,-5356,14752,4912,30.41,-95,258,-318,
96,-5632,14872,4872,30.32,-566,67,-236,
97,-5552,14808,4912,30.27,-324,-232,-74,
98,-5476,14776,4984,30.22,-476,-300,-86,
99,-5440,14744,5004,30.27,-643,-105,-235,
100,-5584,14828,5108,30.37,-496,-148,-286,
101,-5656,14816,5120,30.37,-523,-296,-174,
102,-5496,14780,5080,30.37,-377,-465,-130,
103,-5524,14788,5100,30.37,-299,-189,-220,
104,-5552,14868,4976,30.41,-165,-224,-239,
105,-5572,14808,4924,30.22,-348,-141,-270,
106,-5664,14772,4996,30.32,-418,-273,-310,
107,-5596,14800,4916,30.32,-417,-225,-142,
108,-5556,14968,5092,30.32,-669,-299,-280,
109,-5416,14628,5040,30.32,-440,-268,-282,
110,-5580,14700,5032,30.41,-352,-247,-35,
111,-5384,14752,5304,30.22,-320,-398,-75,
112,-5588,14828,5048,30.22,-502,-92,-181,
113,-5552,14704,5124,30.37,-336,-228,-81,
114,-5540,14868,5028,30.27,-307,-99,-186,
115,-5520,14888,5084,30.32,-349,-63,-209,
116,-5576,14764,5172,30.22,-299,-73,-166,
117,-5524,14752,5152,30.37,-295,-120,-141,
118,-5432,14660,4928,30.37,-360,-87,-75,
119,-5676,14860,5080,30.32,-464,-443,-70,
120,-5496,14700,5228,30.22,-472,-204,-160,
121,-5568,14816,5324,30.32,-284,-604,66,
122,-5444,14616,5132,30.27,-534,293,-300,
123,-5632,14888,5168,30.32,-160,-211,-128,
124,-5520,14816,5076,30.32,-413,-688,15,
125,-5632,14788,5188,30.41,-527,-365,-271,
126,-5524,14748,5220,30.27,-158,-1193,306,
127,-5200,14784,5244,30.27,-567,-336,-215,
128,-5576,14760,5296,30.37,-369,-302,-145,
129,-5488,14672,5376,30.27,-252,-116,-78,
130,-5416,14828,5368,30.37,143,-190,111,
131,-5280,14780,5112,30.22,-228,-320,63,
132,-5232,14952,5080,30.37,-193,-342,-272,
133,-5440,14792,5028,30.32,-595,-103,-169,
134,-5280,14936,5384,30.32,-341,-207,-212,
135,-5504,14744,5188,30.32,-715,377,-433,
136,-5792,14780,5292,30.37,-510,-43,-2,
137,-5684,14740,5484,30.32,-330,-401,21,
138,-5368,14788,5424,30.27,-302,-636,-201,
139,-5128,15040,5244,30.27,-423,-824,-156,
140,-5276,14340,5036,30.37,-317,123,-433,
141,-5504,14984,5452,30.27,-865,556,-635,
142,-5688,14484,5376,30.≥                                              ,,,,
143,-5436,9304,-7168,30.37,9654,1904,2290,
144,-5220,6012,-8004,30.41,12882,-367,4001,
145,-4788,7692,-8272,30.27,11097,-2782,243,
146,-5468,12388,-6688,30.27,-8782,788,-11212,
147,-7528,8856,-7832,30.27,-21505,8983,-28891,
148,-6580,14652,-12684,30.22,-482,-5289,-3151,
149,-3084,18952,-13288,30.27,-5369,5058,-232,
150,-4320,14968,-10704,30.37,-2050,-995,8992,
151,-5532,15940,-8932,30.22,-5710,-262,27011,
152,-10984,7284,-8148,30.32,2817,-5044,20823,
153,-1984,4780,-5520,30.37,1954,8804,23956,
154,-6652,3204,-4396,30.27,-1311,4806,6402,
155,-9056,1940,-6952,30.27,-5544,-1711,-2561,
156,-2708,7624,-6884,30.27,-735,-2858,-10660,
157,-4216,15104,-6780,30.32,-6280,-2840,-19955,
158,-7752,18800,-7460,30.37,4739,-5955,-18394,
159,-6504,20676,-4740,30.22,-4860,-4547,-20004,
160,-8180,15588,-5260,30.22,-2211,-4240,-12326,
161,-2444,16888,-1368,30.27,-6863,-2316,-1991,
162,-7560,12964,-3672,30.32,1242,573,-2738,
163,-9304,16500,-1444,30.22,32,-970,3805,
164,-7740,18816,-2292,30.32,-3347,2696,1844,
165,-10936,17988,-3848,30.32,-3612,-419,9631,
166,-10740,16788,-5308,30.22,847,-2529,21843,
167,-9448,17988,-5312,30.37,-3615,2559,20633,
168,-6724,10668,-3852,30.32,-101,1035,20620,
169,-3356,8524,-2624,30.32,-1003,4077,12621,
170,-2852,5952,-3148,30.22,-1725,5409,5210,
171,-1748,4184,-1944,30.32,55,5297,-3297,
172,-3824,4712,-1684,30.32,960,2137,-13386,
173,-11448,12312,-4744,30.22,10388,-1564,-16995,
174,-6124,21472,-9332,30.27,-2090,-1111,-22651,
175,-7880,20668,-6548,30.37,1720,-5239,-17740,
176,-9404,16284,-6576,30.22,1372,-8475,-9670,
177,-5028,12228,-3936,30.27,-5760,-13458,2763,
178,-11496,12472,-4248,30.32,-1709,1367,-12947,
179,-9336,16248,-2988,30.22,6138,-4299,-1275,
180,-7372,18496,-2800,30.32,2806,-3573,4384,
181,-7200,20648,-3536,30.22,3969,-1841,11454,
182,-8136,21248,-4120,30.22,-2678,2217,20481,
183,-10496,13584,-3976,30.22,-4983,4420,23335,
184,-10280,11720,-4688,30.18,1340,5040,22265,
185,-7404,11332,-4840,30.32,1596,5560,20044,
186,-3944,6672,-3056,30.32,3055,5835,11540,
187,-2508,5024,-2576,30.22,-109,6926,-689,
188,-2664,7388,-4900,30.22,-2,2079,-11248,
189,-3636,10980,-4272,30.27,-3811,-3124,-18014,
190,-5340,15088,-5448,30.27,-3101,-2815,-21037,
191,-8400,19340,-5728,30.32,4862,-5500,-18031,
192,-9028,22472,-5356,30.27,49,-8168,-15765,
193,-7652,13064,-2816,30.32,-799,-1517,-16190,
194,-14636,11708,-5712,30.13,-7104,-9981,8591,
195,-12260,15036,-2528,30.27,7800,1029,-5358,
196,-6176,17016,-912,30.32,2312,1757,-2223,
197,-6252,15652,-2608,30.32,2544,1606,1569,
198,-9600,19780,-4552,30.32,2977,1243,9961,
199,-10348,17016,-6084,30.22,-5231,5128,16411,
200,-10860,14668,-6868,30.27,-6295,5650,19268,
201,-10976,9916,-7172,30.32,-8921,7659,12817,
202,-7720,7512,-4476,30.27,-245,1598,12164,
203,-7172,5896,-4108,30.22,-6023,6184,3270,
204,-7952,5032,-4452,30.22,-1515,-2144,-1912,
205,-8524,7388,-5804,30.27,-2479,-1221,-10797,
206,-10876,12680,-6640,30.22,94,-2291,-18665,
207,-12616,20456,-5036,30.18,-171,817,-23342,
208,-10544,17060,-2780,30.18,1033,2906,-18991,
209,-11344,13984,-3032,30.22,3477,-5045,-8411,
210,-9536,11416,-2344,30.18,9274,-9124,-3039,
211,-10404,12580,-2192,30.22,15752,-4844,-12912,
212,-6984,13404,-612,30.22,6854,-3534,4151,
213,-7796,14432,-2056,30.22,830,597,-1015,
214,-9928,15156,-1272,30.27,-1554,1196,4460,
215,-14044,19768,-4184,30.27,-3188,7332,9856,
216,-14448,20276,-4352,30.22,-2405,867,22442,
217,-12212,14132,-7096,30.22,-6018,951,26553,
218,-12260,11092,-6580,30.18,-3795,6063,19005,
219,-7936,5644,-4172,30.22,-4942,7631,16095,
220,-7136,4404,-3512,30.22,-5047,6926,5118,
221,-9104,0,-5388,30.22,3438,4062,-11736,
222,-7664,8488,-3328,30.18,-1824,1784,-14021,
223,-10972,12920,-5024,30.22,-1656,573,-22389,
224,-9768,16600,-6824,30.37,846,-5102,-26081,
225,-12416,18344,-3760,30.22,4681,-162,-21552,
226,-12140,18220,-2276,30.22,10392,-5595,-10724,
227,-10232,14580,-1380,30.22,10126,-4656,-4217,
228,-7228,14520,-2012,30.22,7609,-2369,-6311,
229,-4268,13984,-1808,30.27,5344,-1718,-1817,
230,-10268,18828,-5120,30.18,4976,-3189,-2147,
231,-19776,16684,-8176,30.27,-3884,7453,-3844,
232,-18152,14436,-5148,30.22,-7840,1514,16248,
233,-16868,6272,-7224,30.22,-11632,-4398,32767,
234,-10788,12040,-308,30.22,-4847,4775,32767,
235,-9116,4888,-3636,30.18,1170,8124,16650,
236,-6920,4216,-1508,30.18,-2792,6226,5408,
237,-2592,4996,-1620,30.27,-4175,7394,-12946,
238,-9272,5612,-4416,30.32,1131,-1466,-10696,
239,-10172,13688,-5096,30.22,-1827,2408,-14530,
240,-10744,19024,-5020,30.22,2436,-5955,-19706,
241,-11548,16576,-5368,30.18,5841,-3853,-20349,
242,-11220,16680,-4316,30.32,5905,-5064,-14174,
243,-9852,14444,-3264,30.27,2171,-524,-11394,
244,-9252,13836,-2484,30.32,2386,178,-3672,
245,-12376,12196,-3636,30.13,9444,3192,-10956,
246,548,13856,-3632,30.18,-23866,26712,-24618,
247,-14572,12052,-3748,30.27,-9289,7904,-3175,
248,-16336,11940,-7144,30.22,-2791,-907,22728,
249,-16180,15372,-9448,30.22,-3761,-9807,32767,
250,-11760,13652,-5396,30.22,-7216,6959,30002,
251,-5900,6900,-5844,30.18,2146,10124,14854,
252,-7948,4496,-1772,30.22,-6075,2234,12814,
253,-5128,3376,-2788,30.13,-5991,350,334,
254,5308,-2628,288,30.22,-11284,-2769,-3968,
255,-7160,12356,-6604,30.27,-785,1004,-16815,
256,-8356,17008,-5332,30.13,131,1485,-21901,
257,-9900,16588,-6672,30.22,5489,-2907,-15770,
258,-10804,18752,-4260,30.13,5474,-5536,-12502,
259,-10096,11832,-3848,30.18,146,-1328,-17126,
260,-2056,12844,2024,30.18,-1338,-7937,-3001,
261,-16420,12920,-5824,30.13,9944,-5671,-1873,
262,-11532,15296,-1824,30.18,7984,-2378,-4416,
263,-10812,10372,-2908,30.22,-1516,-748,-1691,
264,-10712,13816,-480,30.22,-2316,236,4419,
265,-10840,15156,-1800,30.13,-6283,2077,9728,
266,-12112,17436,-2860,30.18,-6190,2796,12787,
267,-11380,13984,-4552,30.22,-1843,2029,19588,
268,-12764,11944,-4728,30.18,-2977,1518,17115,
269,-9304,7380,-3400,30.18,-7848,5406,11466,
270,-8084,5856,-2784,30.13,-2856,2412,9559,
271,-6816,6328,-2324,30.22,1096,2628,1094,
272,-5652,8064,-1196,30.13,2932,4332,-7279,
273,-7376,10136,-4508,30.13,5147,821,-11692,
274,-9276,14112,-5036,30.22,-266,-2262,-18833,
275,-12164,12880,-5640,30.13,4042,-3556,-16716,
276,-11808,14712,-4816,30.22,-861,-1542,-15271,
277,-12556,12652,-3956,30.08,2173,-2088,-11317,
278,-13472,16060,-3856,30.08,4125,-3271,-10204,
279,-10880,10712,-2500,30.22,7711,-4384,-7022,
280,-13032,12032,-1624,30.13,6357,-4426,-4367,
281,-13444,9480,-3616,30.22,-1634,-683,-7882,
282,-12696,8516,-2060,30.08,6944,-6974,11339,
283,-13032,10892,-440,30.13,5445,-1118,11985,
284,-13540,10876,-1912,30.22,2817,1371,13405,
285,-13628,11952,-2920,30.18,-4497,6563,6452,
286,-11764,10516,-3280,30.13,-1216,2516,12323,
287,-11248,10572,-3368,30.22,-6982,4893,10621,
288,-10776,10712,-4680,30.18,-892,771,12651,
289,-10588,12900,-5608,30.22,3298,3593,16253,
290,-15556,15448,-3920,30.27,10801,7317,-15826,
291,-7584,1960,-3312,30.08,1099,12228,-8045,
292,-6592,-328,-4332,30.08,5087,11352,-12117,
293,-10192,3228,-7704,30.22,153,-13233,11144,
294,-12860,12372,-8400,30.18,2514,-6952,5738,
295,-9168,14396,-6808,30.13,-1153,-4571,-9014,
296,-9960,11088,-6460,30.13,-4411,-1700,-11903,
297,-11460,10596,-6028,30.22,3524,-8477,-9020,
298,-13192,10932,-5640,30.18,10497,-12196,-2761,
299,-9748,15672,-4672,30.18,510,-9220,-6749,
300,-14948,5360,-5820,30.22,759,-5385,-13524,
301,-10576,6660,-3100,30.18,955,3947,-5504,
302,-10328,12056,-3112,30.08,1211,4239,-7410,
303,-10096,12116,-2536,30.13,818,1700,1716,
304,-10816,14656,-2712,30.13,1438,1559,7514,
305,-12840,14028,-5576,30.08,-9684,6139,10846,
306,-15068,12760,-6632,30.13,-11406,5489,15434,
307,-12428,9248,-6120,30.13,-6710,11637,10244,
308,-10728,8464,-4324,30.13,1313,-1354,19493,
309,-7500,11816,-3076,30.18,-8532,5915,7528,
310,-5908,10284,-4332,30.18,-2760,-3707,9676,
311,-4332,9220,-1528,30.22,-3202,2127,2769,
312,-5400,6088,-2540,30.08,-1595,3063,-3213,
313,-4440,9012,-3140,30.08,3253,3612,-6875,
314,-8396,13220,-3044,30.08,2714,-2580,-15169,
315,-10384,12468,-6344,30.13,4417,-1066,-17471,
316,-10712,17228,-4452,30.13,3777,-4084,-12769,
317,-13808,13932,-5748,30.22,886,-6129,-11374,
318,-11196,12368,-2960,30.18,7948,-2780,-9652,
319,-10928,12600,-2216,30.08,5273,-248,-7384,
320,-12248,11872,-992,30.18,2999,-3608,-3031,
321,-11556,12032,-1680,30.18,-471,-3251,-1745,
322,-10916,11796,-1300,30.13,-584,-432,-986,
323,-10572,13052,-1104,30.13,-2131,2113,-2781,
324,-11272,12900,-1940,30.13,-2726,4332,-778,
325,-11744,13396,-3492,30.18,-3544,3126,4604,
326,-13964,14288,-4292,30.13,-5539,3455,11645,
327,-12472,14668,-6560,30.08,-4299,5059,16989,
328,-12048,13628,-5764,30.08,-1977,4501,22646,
329,-9328,13132,-5036,30.04,-5868,5323,16702,
330,-7840,7072,-3748,30.13,-7518,4416,10820,
331,-6704,3988,-1692,30.08,836,-3781,8975,
332,-5092,4092,-1712,30.13,-2246,2485,-3104,
333,-7284,7304,-3992,30.08,-281,-2649,-12053,
334,-10340,11408,-4948,30.04,1153,-3773,-19590,
335,-13432,15004,-6484,30.08,8692,-5252,-19386,
336,-14452,15400,-5828,30.18,3330,-5995,-17238,
337,-16336,14916,-5612,30.18,7510,-10098,-10802,
338,-11180,12464,-2988,30.04,8176,-4261,-11995,
339,2004,9620,-540,30.13,540,-12299,4014,
340,-10896,11584,-1324,30.18,2990,-781,-761,
341,-11404,8688,-1372,30.13,3696,825,-1427,
342,-12076,6140,-884,30.13,1652,3185,-621,
343,-13128,7120,-1600,30.13,3930,2879,-264,
344,-13272,8700,-1528,30.13,6264,1970,1997,
345,-12736,9916,-3716,30.04,1230,2255,3118,
346,-12584,10728,-6496,30.13,-2983,-796,5057,
347,-14820,11876,-6140,30.08,-6825,2206,11102,
348,-15460,8952,-7788,30.13,-10198,9604,14622,
349,-11740,6956,-6376,30.08,-3730,7535,14748,
350,-12852,7128,-6276,30.13,-4257,7646,7465,
351,-10756,5144,-6708,30.13,8392,-5837,11019,
352,-9564,5336,-4640,30.08,-2413,2916,-198,
353,-10076,5360,-5132,30.08,-1241,-2720,-3804,
354,-10476,9556,-5708,30.04,-4867,-5262,-8384,
355,-11640,11820,-5488,30.13,-5527,-2201,-13125,
356,-13088,12412,-6500,30.13,-6730,-1391,-12620,
357,-13156,21664,804,30.13,-5932,5753,-12395,
358,-10252,11280,-2744,30.08,7303,-1654,-7225,
359,-11568,11604,-1808,30.04,573,594,-6623,
360,-10296,10812,-2320,30.13,4055,-1895,-8898,
361,-8784,8864,-2652,30.08,4480,2037,-11939,
362,-11784,13376,-1856,30.04,1793,-1950,3692,
363,-11616,13672,-3128,29.99,-6517,5220,-2066,
364,-12944,12788,-4212,30.13,-8421,4099,3217,
365,-13060,11936,-6056,30.08,-5457,2021,15196,
366,-13412,11504,-5704,29.99,-7268,2543,18940,
367,-10692,12672,-4684,30.13,-8128,4735,17607,
368,-8152,10148,-4900,30.08,-2454,5406,12355,
369,-6708,10476,-2232,30.04,3008,-1733,12312,
370,-3496,9252,-2468,30.08,-1793,-2060,9024,
371,-3776,11320,-3032,30.04,-69,-1758,809,
372,-2716,15216,-4248,30.18,-5652,4877,-4105,
373,-3964,15312,-4732,30.04,2663,-651,-1812,
374,-4168,14116,-4108,30.08,2738,3708,-5226,
375,-2984,12936,-2888,30.08,3081,-2116,407,
376,-3928,10868,-2772,30.08,863,-487,-3680,
377,-5312,7524,-3404,29.99,377,-3242,-6528,
378,-8852,7692,-4792,30.13,-1754,-1332,-11543,
379,-13216,13416,-7020,30.08,-1283,-8824,-8968,
380,-12964,13244,-4452,30.04,-4765,-1692,-16484,
381,-13652,13676,-2404,30.13,228,-1970,-11430,
382,-14676,12552,-3072,30.04,6003,-5891,-7773,
383,-10096,10404,-1868,30.08,7651,600,-6905,
384,-13108,11808,-912,29.99,6552,-3124,-3216,
385,-9828,13040,-1648,30.04,-427,281,-6437,
386,-10100,12424,-2488,30.04,-560,-57,-2262,
387,-10556,12120,-1984,30.04,-904,2858,2318,
388,-12296,12596,-3208,29.99,-3213,4816,7131,
389,-13916,12040,-4504,29.99,-4372,3148,10358,
390,-15896,12800,-6012,30.13,-8191,4150,10953,
391,-12384,8192,-8160,30.04,976,2383,10229,
392,-11908,11012,-5320,30.04,-894,-1084,18689,
393,-10404,9916,-5948,30.08,-6359,5842,8756,
394,-7964,8604,-4804,29.99,-3116,2023,8192,
395,-6252,8436,-4176,30.08,-1275,1143,4110,
396,-3632,11672,-4724,30.08,-269,2715,-4296,
397,-7000,11692,-5924,30.04,1394,382,-4196,
398,-7712,12800,-5692,30.04,2290,-3611,328,
399,-7180,12752,-4892,30.04,3333,-7117,2503,
400,-6380,10188,-3884,30.04,4003,-8133,3306,
401,-7968,10408,-4364,30.08,-670,-3242,-5239,
402,-10060,9900,-4104,29.99,1608,-5773,-8473,
403,-11888,9804,-4420,30.04,-37,-4099,-11524,
404,-13168,10300,-3608,29.99,4108,-5530,-11291,
405,-13396,9352,-3592,30.04,3578,-3230,-11199,
406,-12476,9852,-2864,30.04,3003,-4567,-9087,
407,-11420,10216,-1948,30.08,-610,-618,-8585,
408,-13824,10960,-3988,30.04,-2126,3084,-6246,
409,-11956,13596,-5328,30.08,-5077,4739,-2401,
410,-12280,12780,-6088,30.04,-7189,3885,2357,
411,-12000,13200,-6664,29.99,-5600,2787,6888,
412,-10208,12804,-5264,30.04,-1085,4227,15035,
413,-11412,12172,-5768,30.08,-4616,5257,16533,
414,-12028,10456,-6708,30.04,-6541,3044,12104,
415,-10000,9048,-5244,30.08,-466,-1184,14026,
416,-7728,7108,-3268,29.94,-2832,2324,8885,
417,-7256,6548,-2588,30.08,-4522,2988,2224,
418,-9044,8016,-4276,29.99,-4829,1419,-4666,
419,-9156,12944,-4148,30.08,-2338,-3189,-9718,
420,-8564,13588,-3136,30.13,3019,-3024,-11709,
421,-8252,14392,-2540,29.94,2830,-1892,-11148,
422,-9976,14112,-2756,29.99,1210,-2016,-11196,
423,-9392,12932,-1920,29.99,-338,-1051,-10813,
424,-10272,12776,-1268,30.04,3840,-3000,-6794,
425,-11432,12816,-1684,29.99,5346,-3525,-5370,
426,-11584,11148,-2380,29.99,3786,-3784,-2932,
427,-11120,10824,-1928,29.94,-1610,-2123,-465,
428,-12808,13208,-1148,30.08,-8728,3089,-411,
429,-9088,10444,-1504,30.04,-3648,3770,-540,
430,-10348,12028,-1624,30.13,-276,4331,2400,
431,-11420,11796,-4488,30.08,-2170,5447,2799,
432,-11852,14808,-6200,30.04,-3442,3427,6941,
433,-10296,13200,-5292,30.08,-1830,2461,10171,
434,-9172,12456,-4568,29.94,-498,2642,11332,
435,-8892,11712,-4540,29.94,-3172,2482,11240,
436,-7448,10164,-3888,29.89,-5536,717,10371,
437,-6812,9352,-3600,30.04,-2410,-2958,8684,
438,-7148,9172,-3960,29.94,-1465,-2657,1667,
439,-6896,9884,-3556,30.04,702,-2673,-4659,
440,-9352,10444,-3236,30.04,-697,-1241,-8915,
441,-11152,12800,-4016,29.89,2812,-4439,-9633,
442,-10708,12700,-3844,30.08,4428,-5675,-8429,
443,-10484,12892,-3512,30.04,5127,-5228,-6841,
444,-9524,13056,-2996,29.99,6286,-2936,-7810,
445,-13160,13568,-3684,30.04,6602,1725,-13119,
446,-9880,11688,-3692,29.99,5008,-1915,-1231,
447,-8964,13652,-3256,30.04,996,111,656,
448,-9612,12848,-2708,29.89,-2100,3161,154,
449,-10904,11940,-4656,29.99,-1882,2469,4665,
450,-11076,11192,-5336,30.04,-5997,4091,3368,
451,-10348,10300,-6800,30.04,-2960,3674,4800,
452,-10308,10064,-6024,30.08,-4699,4354,6259,
453,-10800,9992,-5904,30.04,-4055,3441,5940,
454,-11120,9596,-4416,29.99,-1017,-3349,7803,
455,-9924,8152,-4704,29.94,-105,6437,-2197,
456,-8400,9904,-4840,30.04,1237,840,1608,
457,-8176,11400,-5944,29.99,836,-750,-485,
458,-8748,11744,-6716,29.99,-781,-664,-2536,
459,-8256,11504,-6172,29.99,2375,-698,-3153,
460,-8788,10136,-5216,29.89,108,370,-4956,
461,-9400,8420,-5336,29.99,-1922,340,-8358,
462,-11496,9352,-5616,29.89,852,-5798,-5819,
463,-11532,10580,-6236,30.04,-964,-4530,-6548,
464,-11400,9484,-5696,29.89,1982,-4125,-4522,
465,-10816,8828,-4668,30.04,2809,-3967,-5272,
466,-11324,9696,-3980,30.04,2471,-3181,-6106,
467,-12048,15468,-3544,29.99,-3331,-361,-9056,
468,-9256,10544,-2812,29.94,1315,-3165,5237,
469,-11592,13408,-2804,29.99,-1217,2482,3157,
470,-11700,13244,-2840,29.94,-5180,3381,4470,
471,-12572,11656,-2384,29.89,-1164,95,11670,
472,-11316,12748,-3452,29.99,-967,-685,16482,
473,-10300,12488,-2776,29.94,-1510,3631,13548,
474,-8368,11180,-2512,29.99,-2023,5829,7839,
475,-7300,8252,-1820,29.94,-3720,6302,4435,
476,-8412,7052,-2972,30.04,-5067,5463,1302,
477,-6308,9164,-3548,29.85,-1237,1583,-3935,
478,-9624,13284,-7796,29.85,-2998,-1723,-5683,
479,-6836,14088,-4808,30.04,3343,-2654,-7386,
480,-6268,13156,-3184,29.94,1947,-340,-7025,
481,-7312,13180,-2276,29.99,-2862,830,-10903,
482,-3988,8868,1324,29.85,-4140,-2077,-12346,
483,-10700,11560,-2272,29.89,-4573,1890,-10687,
484,-12988,11712,-3516,29.99,-374,-6707,850,
485,-9688,12972,-1020,29.89,3140,-3772,-5758,
486,-9700,11440,-1020,29.85,2555,-2298,-251,
487,-12648,10764,-1568,29.94,-1750,-1050,381,
488,-12376,10404,-1192,29.99,1668,-2098,981,
489,-10460,9712,1096,29.94,2946,268,1627,
490,-10332,10560,364,30.08,6396,781,678,
491,-10712,13588,-288,29.94,2650,2427,-2765,
492,-10580,13144,-684,29.94,-1125,2652,-598,
493,-10916,12672,-1352,29.89,-1539,1395,4026,
494,-11472,12860,-3760,29.99,177,563,6459,
495,-10520,12256,-5312,29.89,4350,-403,9829,
496,-15184,11356,-10412,29.94,5749,1213,6280,
497,-9684,14768,-5536,29.94,-2456,2356,10734,
498,-8988,10732,-5856,29.89,-2495,3742,4058,
499,-7532,7264,-3724,29.85,-5335,1693,8403,
500,-7328,6020,-3812,29.94,-3535,568,1953,
501,-7824,7636,-4276,29.89,-532,-1861,-2218,
502,-7340,11116,-5128,29.85,-2128,-1076,-7295,
503,-9136,12492,-5188,29.89,1729,-990,-8603,
504,-10868,11552,-4848,29.94,1593,-2280,-8465,
505,-9988,10972,-4176,29.89,4928,-4495,-8421,
506,-12080,12528,-3532,29.75,3266,-4564,-7868,
507,-12832,8120,-4944,29.99,3486,-3221,-7978,
508,-12364,9476,-4964,29.94,14712,-10199,1357,
509,-10756,10356,-3360,29.89,6162,-2905,-3135,
510,-10776,9784,-3068,29.94,2727,1011,-1978,
511,-10932,9072,-3716,29.99,2709,-119,-1786,
512,-11088,9948,-3468,29.89,2901,769,411,
513,-12880,9180,-4256,29.99,-341,5320,2700,
514,-14844,10216,-5288,29.8,-3646,2155,3692,
515,-10848,9044,-5572,29.94,-4173,881,1425,
516,-10920,12068,-9272,29.94,-4361,2177,6898,
517,-10348,12124,-6860,29.89,-8693,8666,10793,
518,-12936,8176,-6788,29.94,-1543,5307,5868,
519,-9524,6328,-6852,29.94,434,-766,12525,
520,-9164,7216,-6020,29.94,-1195,1014,8863,
521,-9364,7124,-5152,29.94,-2887,-1353,4668,
522,-11160,7980,-5400,29.94,-4398,-1281,-3370,
523,-10968,9644,-6300,29.89,-1699,-5404,-5377,
524,-9864,12768,-4964,29.94,-3258,-2627,-10156,
525,-9308,12216,-3940,29.94,-3562,155,-11583,
526,-10572,14728,-1712,29.99,-4172,-2559,-13093,
527,-8720,13920,-2356,29.94,-1847,-1718,-10638,
528,-13900,16852,940,29.94,3835,7623,-9034,
529,-4216,18144,2164,29.94,-6665,5524,-3847,
530,-10312,14356,-2428,29.94,-4679,4777,-2436,
531,-11200,12672,-3868,29.89,-7065,1787,6096,
532,-11924,11792,-4076,29.94,-1437,753,13145,
533,-11108,11788,-3976,29.85,-1370,3095,14339,
534,-9936,13512,-4600,29.85,475,2057,15256,
535,-6656,11436,-3360,29.94,-1766,3993,10850,
536,-5588,10184,-3940,29.89,-3216,1743,3832,
537,-4260,12260,-3380,29.94,903,-1992,2203,
538,-3404,15180,-3008,29.94,-920,534,-1245,
539,-3508,14740,-3780,29.94,-542,-270,-1130,
540,-3964,15008,-4736,29.99,1234,-403,-2918,
541,-4436,12144,-3692,29.89,1934,-1839,-780,
542,-4500,11620,-2948,29.89,695,-573,-1931,
543,-6548,11480,-5016,29.85,-158,-2866,-2515,
544,-7940,10160,-2880,29.89,-3919,-1838,-5594,
545,-7660,11600,-2692,29.85,-4459,-586,-11049,
546,-10752,11976,-2044,29.89,428,-4444,-12546,
547,-14604,14516,-3584,29.85,-2161,-1742,-13744,
548,-13156,14616,-2152,29.94,6878,-3124,-11346,
549,-10964,12704,-876,29.94,7483,-801,-6032,
550,-10020,12616,-1312,29.94,3163,399,-5925,
551,-10004,13912,-1116,29.94,2125,312,-3200,
552,-9964,12656,-708,29.8,-464,2406,1101,
553,-10828,12728,-1860,30.04,-1764,3813,4742,
554,-12856,14852,-4716,29.99,-725,112,11299,
555,-11196,12340,-5772,29.8,-2942,3943,9787,
556,-12284,14620,-6892,29.94,-6553,5053,12112,
557,-12684,12684,-5972,29.89,-9451,2865,13019,
558,-10692,10016,-4608,29.85,-1397,-1685,14232,
559,-6408,9488,-1348,29.94,-2794,87,9263,
560,-9408,7340,-5444,29.89,664,-179,3913,
561,-5684,8324,-4328,29.94,2345,1362,138,
562,-6140,9256,-4228,29.89,841,583,-3280,
563,-7444,8300,-3364,29.85,1477,425,-9542,
564,-9764,11604,-5012,29.85,1675,-5356,-13046,
565,-11836,15660,-6752,29.89,11403,-11268,-10614,
566,-12504,14952,-6600,29.8,-1100,-3855,-14225,
567,-11028,12884,-4172,29.89,7696,-6048,-6953,
568,-10692,9380,-3672,29.85,6237,-7799,-2203,
569,-10676,9416,-3020,29.8,8412,-8135,-2249,
570,-7776,9932,-416,29.89,581,945,-10479,
571,-14056,10764,-1500,29.75,-1095,4237,-9625,
572,-11876,13980,-3612,29.85,-3341,2457,-3957,
573,-12768,15180,-5708,29.94,-2587,820,7730,
574,-13856,13532,-7048,29.8,-3634,3064,18850,
575,-14752,15820,-7872,29.85,-3166,3707,27159,
576,-13256,10352,-6552,29.8,-586,3930,19406,
577,-11108,5084,-4352,29.85,-3088,8170,15193,
578,-8560,2960,-2284,29.89,-1237,7017,7087,
579,-6912,5548,-1448,29.89,-2439,5557,-2062,
580,-8008,8904,-3656,29.8,-4626,911,-11498,
581,-10024,13996,-5580,29.8,-4789,-1950,-16428,
582,-9044,15160,-5768,29.89,4495,-2345,-15936,
583,-9880,14972,-5304,29.85,-3805,1014,-13961,
584,-10172,14012,-4960,29.89,-4193,899,-13392,
585,-10208,12048,-2572,29.89,3160,-3556,-6978,
586,-3028,15344,2064,29.85,-2550,-2496,-7325,
587,-8592,13892,-1284,29.85,1086,-5539,-3108,
588,-10284,14772,-2984,29.8,486,-2470,-4752,
589,-9064,12908,-1928,29.85,4636,-2965,4246,
590,-10328,16812,-1788,29.85,918,3364,5480,
591,-11648,16828,-3892,29.85,-3100,3323,10226,
592,-13596,16580,-4484,29.89,395,-4929,20284,
593,-11888,15904,-3124,29.85,1663,-3670,18619,
594,-11596,9944,-2760,29.85,-3811,2741,17961,
595,-9300,8240,-1028,29.89,-2776,2994,15301,
596,-6524,6528,-660,29.94,-1809,3430,7885,
597,-4988,6328,184,29.8,525,1015,1774,
598,-5208,7304,-1060,29.8,-460,1815,-7397,
599,-6440,10484,-3548,29.8,-838,-138,-14879,
600,-9324,16152,-3476,29.85,3515,-1230,-18490,
601,-8980,16036,-5552,29.71,4998,1930,-18348,
602,-9440,17852,-2104,29.85,-1747,2168,-14242,
603,-10188,14480,-2468,29.89,-2163,933,-9696,
604,-10464,14904,-3704,29.8,7837,-6057,-3149,
605,-8324,12772,-4656,29.75,6724,-4031,-4062,
606,-7784,15952,-4028,29.8,2756,-2300,-4206,
607,-13932,8184,1368,29.89,-15973,20674,-17491,
608,-12244,15336,-3392,29.89,-5333,-1786,14236,
609,-12704,14676,-3852,29.94,-1142,819,16389,
610,-12084,13536,-4808,29.89,1473,-3716,23861,
611,-10940,12404,-5092,29.75,-2746,1040,17348,
612,-10244,8456,-4512,29.8,5802,-6159,17500,
613,-6412,8516,-2084,29.75,-4994,1631,7774,
614,-7020,8276,-2976,29.94,-5464,-1221,-1220,
615,-6748,8736,-3404,29.8,-684,-3317,-6417,
616,-7956,10680,-2888,29.89,-898,-334,-12491,
617,-9436,13204,-1868,29.85,4390,-2050,-14482,
618,-10264,14444,-3676,29.8,4894,-4883,-16459,
619,-10688,15628,-1868,29.85,4923,-6087,-14417,
620,-11460,14616,-2008,29.85,3709,-4443,-11730,
621,-10836,13200,-1972,29.8,4417,-1912,-10176,
622,-12452,13900,-2588,29.8,5602,2955,-12111,
623,-11380,13064,-3540,29.75,4342,741,-10064,
624,-12616,11136,-4428,29.8,-4571,5918,-6275,
625,-6716,13372,-3224,29.85,-11715,6494,6689,
626,-12884,8844,-4860,29.85,-6045,-5182,25644,
627,-13752,12416,-5860,29.89,2107,4114,17727,
628,-12120,10364,-5000,29.75,3938,4690,19233,
629,-9840,9012,-4764,29.89,-1043,7960,12044,
630,-7744,8236,-3552,29.8,-6573,4904,8354,
631,-9092,10160,-3864,29.8,-5466,10203,-11530,
632,-7692,8616,-5028,29.8,4367,-1110,-3388,
633,-7388,9676,-5556,29.89,763,-1858,431,
634,-7700,10480,-4908,29.85,-758,-5448,-2577,
635,-9208,12140,-6548,29.71,734,-3441,-11211,
636,-9540,14720,-5616,29.75,-1088,-4571,-10290,
637,-10164,12816,-5704,29.85,3698,-5582,-9016,
638,-10140,12464,-5004,29.8,3041,-5095,-7514,
639,-10132,12660,-5152,29.75,3273,-6234,-5643,
640,-17864,22320,-2996,29.75,152,9924,-18077,
641,-8980,17888,-2492,29.85,6537,-7629,5392,
642,-10464,15704,-2144,29.71,-8755,3363,1210,
643,-12316,14348,-5244,29.85,-4354,1610,12316,
644,-11196,16644,-3772,29.71,-754,3153,16514,
645,-9132,13208,-2776,29.85,1530,-88,17844,
646,-7664,11352,-2080,29.85,-2852,5861,11111,
647,-6840,6936,-2376,29.85,-1192,2940,6446,
648,-6364,8324,-1540,29.85,-1708,2312,2531,
649,-6604,9500,-2696,29.75,-1694,2390,-3874,
650,-7892,10556,-3104,29.8,-332,1550,-7276,
651,-8768,12328,-4432,29.75,2395,1480,-9436,
652,-7484,15040,-4820,29.75,325,565,-10284,
653,-7912,13824,-3692,29.75,-1668,2161,-9418,
654,-8616,13356,-2696,29.8,932,15,-7966,
655,-9476,15320,-3732,29.75,-2921,506,-9717,
656,-12016,13320,-5612,29.85,-4911,9619,-17982,
657,-9648,12680,-3524,29.66,1490,-3452,-4934,
658,-9500,12568,-3816,29.71,55,-1219,-5598,
659,-9336,13816,-3844,29.71,2268,-2981,-3789,
660,-9028,15388,-3976,29.71,1405,-817,643,
661,-9540,15740,-4776,29.71,1179,-1359,7686,
662,-11096,15244,-4180,29.89,-2160,2992,6539,
663,-12708,13432,-4016,29.75,-2197,-130,10687,
664,-11652,9384,-4396,29.8,-3030,-789,17267,
665,-9536,9132,-2644,29.75,-2183,642,12258,
666,-8464,9144,-3840,29.75,-3128,137,8993,
667,-7352,10536,-3156,29.66,-2834,-397,5179,
668,-6636,8404,-1912,29.75,465,-441,2200,
669,-6168,9732,-984,29.8,-1031,1879,-4491,
670,-7168,11044,-2256,29.71,4490,-2763,-10115,
671,-7684,15904,-1464,29.85,58,-1108,-13744,
672,-8448,14676,-2836,29.75,895,705,-13182,
673,-8928,15744,-1672,29.66,-1160,1382,-13024,
674,-9796,13660,-1584,29.71,-13,1975,-9880,
675,-11088,13684,-1596,29.8,7217,-3573,-1903,
676,-9568,13136,-3072,29.75,11260,-4523,-1890,
677,-8928,13004,-4144,29.8,-660,-1202,578,
678,-8092,16052,-4648,29.8,-2957,8021,-3723,
679,-13192,13628,-7108,29.75,-4230,644,10664,
680,-11028,14872,-5952,29.8,-4483,5071,11955,
681,-11128,15284,-5744,29.75,4009,693,17700,
682,-8396,12432,-6196,29.8,-630,3513,17385,
683,-6552,9252,-4840,29.8,-4392,3531,10079,
684,-4876,7400,-4668,29.8,-3765,1474,5689,
685,-4332,9440,-3644,29.8,-1606,1071,194,
686,-5148,8900,-4312,29.8,-712,1123,-4576,
687,-5648,11088,-4452,29.8,1480,217,-7171,
688,-6488,11880,-4952,29.71,1799,1086,-10896,
689,-8260,13504,-7000,29.75,5222,-5495,-8876,
690,-8620,15700,-6756,29.75,2092,-5688,-9413,
691,-8976,13800,-6164,29.8,4143,-6177,-7665,
692,-8652,11660,-5712,29.85,3619,-4924,-8473,
693,-10520,12968,-4640,29.8,2664,-6943,-5991,
694,-8356,9468,-3588,29.66,2639,-4015,-10260,
695,-8372,12372,-4140,29.8,1920,-8290,6503,
696,-9968,14336,-4320,29.8,-1875,-1779,1461,
697,-10896,14268,-3912,29.85,-394,-646,5348,
698,-10152,13348,-4308,29.71,-976,1896,9118,
699,-11012,12124,-3500,29.71,2438,263,12118,
700,-9640,11412,-3032,29.75,-2527,4925,6419,
701,-9760,9008,-4732,29.75,4444,1912,8916,
702,-8708,11856,-3736,29.71,-1261,4407,3605,
703,-7820,8600,-4476,29.75,-548,4438,2504,
704,-7352,8380,-3540,29.71,-730,3484,-1457,
705,-6708,8036,-4756,29.8,-1520,4315,-5110,
706,-8092,9256,-5672,29.75,-337,1789,-7206,
707,-9580,11000,-6052,29.75,227,-174,-7617,
708,-11440,12652,-8348,29.66,-1735,-1603,-10723,
709,-11024,13736,-6364,29.8,-4786,-2018,-12106,
710,-10504,8928,-5764,29.8,2339,-1953,-9205,
711,-11692,11452,-3604,29.75,1515,-4599,-4391,
712,-11184,7732,-2392,29.71,742,-3584,-7453,
713,-9724,9820,-5996,29.8,5983,-7363,-1394,
714,-3988,10992,-1152,29.75,-7320,-3637,-1239,
715,-11776,13204,-4496,29.71,-2899,-957,615,
716,-11892,14444,-3360,29.71,-2109,-1809,9719,
717,-13100,15240,-3332,29.66,-535,-1181,15866,
718,-12308,14520,-4452,29.8,-5646,-47,16799,
719,-9608,12884,-3240,29.75,-1589,-2072,18230,
720,-7596,12504,-1648,29.71,-2510,2157,12785,
721,-5828,8320,-776,29.75,3076,193,10953,
722,-5236,6836,-1188,29.71,-1236,3172,2811,
723,-5080,7336,-1940,29.71,584,1112,-3018,
724,-6624,11736,-3316,29.85,849,-864,-6774,
725,-7764,13968,-4764,29.71,2974,-1614,-10838,
726,-7200,15808,-4608,29.66,2924,851,-11013,
727,-8648,15620,-4700,29.66,-1675,1755,-10574,
728,-9052,14596,-2948,29.71,-2417,1974,-7169,
729,-7408,12864,-3116,29.66,-612,-136,-5350,
730,-7288,13016,-3544,29.71,1484,-1601,-4264,
731,-9188,13748,-3956,29.8,-783,-1742,-5968,
732,-8632,14156,-4112,29.75,-7757,650,-5518,
733,-8080,13804,-4400,29.75,-2115,-23,1431,
734,-7556,16576,-3908,29.66,-952,1706,2726,
735,-7476,16852,-3884,29.66,-1193,3267,4688,
736,-7844,14176,-3872,29.71,92,2093,7494,
737,-8024,15496,-4500,29.66,-1380,-987,11245,
738,-7536,13640,-2968,29.75,1265,-2260,11902,
739,-7412,11572,-2744,29.71,-2788,1760,8121,
740,-7448,9880,-3420,29.66,-2744,-118,5602,
741,-7460,8668,-2820,29.66,-2182,-1701,2271,
742,-7492,7576,-2496,29.66,-2307,-201,-3090,
743,-8396,10708,-2980,29.8,-2154,1160,-8326,
744,-9052,14244,-3400,29.8,3320,-3895,-10165,
745,-8300,15580,-2976,29.71,3121,-2786,-11459,
746,-8176,15092,-2708,29.75,516,536,-11599,
747,-8632,13912,-2464,29.66,1216,-975,-8875,
748,-9080,13652,-2020,29.75,1471,-1091,-7019,
749,-8756,12920,-1996,29.71,3559,-58,-5814,
750,-10204,13864,-2104,29.71,1542,838,-3159,
751,-11160,13452,-3036,29.61,971,-528,1146,
752,-9340,12828,-3952,29.71,2690,-1303,3558,
753,-9948,11288,-4368,29.66,-3689,2040,10593,
754,-11188,11672,-6112,29.75,698,4361,7788,
755,-10940,11720,-6984,29.75,-521,2092,10121,
756,-8752,11264,-5288,29.61,-2262,1733,7588,
757,-7308,9972,-4348,29.75,-1379,293,6198,
758,-7076,9248,-4360,29.71,-2274,1123,2084,
759,-7052,10576,-4740,29.61,157,-309,422,
760,-7204,10568,-4856,29.66,-189,252,-2471,
761,-8176,11176,-4988,29.75,454,47,-3954,
762,-8960,11164,-5660,29.66,-315,-737,-6072,
763,-10284,11932,-6036,29.66,-537,-3605,-6917,
764,-8892,11308,-5668,29.71,4642,-5292,-7674,
765,-9596,11280,-4056,29.66,1351,-3937,-7765,
766,-11616,10340,-5800,29.71,1988,-5370,-7311,
767,-11352,11720,-4808,29.75,6673,-7960,-1682,
768,-10868,10220,-3016,29.71,5973,-4075,-2852,
769,-11176,9432,-3300,29.75,1703,-879,-2086,
770,-9972,11804,-2796,29.66,-957,-324,-884,
771,-10880,12820,-2964,29.75,-3123,1406,-18,
772,-11732,11320,-3924,29.71,-4325,3141,4704,
773,-12148,12056,-4956,29.61,-2627,1878,12022,
774,-11144,12732,-4748,29.57,4012,1360,15667,
775,-9232,10296,-3832,29.71,-3268,7361,7076,
776,-9488,9296,-3564,29.66,-3862,7753,4782,
777,-9720,6804,-4272,29.66,-4528,6661,-238,
778,-8948,6652,-4048,29.66,-2045,4738,-1983,
779,-10984,8096,-6168,29.75,-1167,1748,-5349,
780,-10012,13528,-6348,29.71,-1391,-928,-10099,
781,-8832,13332,-5156,29.57,3015,-2894,-7777,
782,-9452,12296,-5144,29.61,-1813,-645,-8266,
783,-10000,11776,-4780,29.57,-510,-2802,-6511,
784,-10112,10904,-4248,29.71,173,-4356,-4108,
785,-10332,11160,-3796,29.66,1873,-4197,-3659,
786,-11060,10632,-3976,29.71,-2606,-613,-2886,
787,-11548,13092,-4524,29.71,-2257,-2870,-1768,
788,-10224,12160,-3224,29.75,-1370,-2195,2451,
789,-10552,13916,-2080,29.71,2793,1069,8481,
790,-10952,14416,-2740,29.66,-2335,1782,10534,
791,-11488,13744,-3164,29.71,-3024,-298,14526,
792,-10312,12808,-1696,29.66,224,-286,10428,
793,-8612,9652,-1508,29.61,-53,1995,6283,
794,-7996,8268,-1176,29.66,-926,791,4919,
795,-7144,7356,-1616,29.57,-1531,1039,-581,
796,-7572,10168,-2620,29.66,-2817,1384,-4773,
797,-8712,11376,-2528,29.66,-100,258,-7367,
798,-9320,12332,-2268,29.66,137,1669,-8964,
799,-10204,15192,-3016,29.66,-142,1178,-7960,
800,-8412,14840,-2116,29.61,-935,1871,-6946,
801,-8076,12980,-2056,29.66,2883,-581,-1530,
802,-9048,13424,-2872,29.75,810,-562,-2074,
803,-9112,11892,-4100,29.66,-881,-2030,-1680,
804,-8848,11936,-3872,29.71,-1784,589,-6122,
805,-8764,12060,-2868,29.61,-2323,2387,-5130,
806,-9696,13972,-3360,29.66,-2789,2544,-2984,
807,-9656,15084,-3772,29.71,1950,-869,2122,
808,-9208,15644,-3628,29.71,3000,-2373,6411,
809,-9296,14696,-3292,29.71,76,1012,7308,
810,-10052,14472,-3936,29.61,-2227,915,8394,
811,-9472,12824,-3792,29.61,-1119,-1298,10205,
812,-8260,10336,-3424,29.57,397,-2873,10452,
813,-8540,8512,-3524,29.71,-313,-3143,8724,
814,-8868,8460,-3544,29.61,-866,-3183,3611,
815,-9356,8424,-3632,29.66,-2207,-1030,-2453,
816,-8876,11700,-3136,29.52,1305,-2161,-7904,
817,-8960,13308,-2580,29.57,1728,-2149,-9828,
818,-9068,12944,-2532,29.66,2559,-2985,-10531,
819,-9708,13144,-2888,29.57,1594,-3338,-10437,
820,-10320,13104,-2540,29.61,2398,-1766,-9710,
821,-9520,13032,-2436,29.75,3804,214,-7673,
822,-10560,13256,-3440,29.66,1035,2788,-5761,
823,-10640,11592,-3808,29.61,38,1405,682,
824,-11000,14440,-1300,29.57,-3422,7725,-2154,
825,-12628,10360,-5660,29.61,-7550,2845,8950,
826,-11708,11624,-5440,29.66,-2619,2480,10833,
827,-11128,9808,-6128,29.61,-972,1695,9406,
828,-9940,9916,-5740,29.71,-1121,381,10756,
829,-8936,8392,-3828,29.61,-1793,-420,7596,
830,-7792,10188,-3724,29.61,-3119,1092,4716,
831,-8084,9696,-4436,29.61,-2104,1098,-1040,
832,-9040,10620,-5216,29.75,1434,-1511,-2590,
833,-10360,10824,-5612,29.57,-223,-801,-6658,
834,-10432,11208,-5512,29.57,841,-2266,-8872,
835,-12016,10916,-3984,29.61,499,-3549,-8704,
836,-10800,10160,-4244,29.57,3152,-4133,-8288,
837,-10296,10364,-4000,29.61,4703,-4910,-6430,
838,-11304,11692,-3500,29.66,4115,-4211,-5384,
839,-9756,12940,-1556,29.71,-2880,1957,-8664,
840,-13024,9708,-3736,29.66,-1372,710,-1156,
841,-11512,11756,-3556,29.66,-6082,604,4816,
842,-11624,11432,-4584,29.66,-4169,3106,7771,
843,-12488,12896,-5432,29.61,-371,3430,13182,
844,-10980,13052,-5976,29.66,-1075,4369,12248,
845,-8960,10156,-3224,29.57,-2458,5492,12257,
846,-9792,6496,-4356,29.75,-5130,2872,6993,
847,-7932,9244,-3752,29.57,1587,-487,1304,
848,-6624,10548,-4252,29.61,-3744,3485,-6543,
849,-7696,11476,-4108,29.66,-2798,3450,-9355,
850,-8520,12932,-5116,29.61,-1226,-42,-9162,
851,-9380,12164,-4680,29.61,-269,-3125,-6959,
852,-9676,11408,-4112,29.66,282,-3535,-6273,
853,-10564,11340,-3860,29.57,1637,-3541,-5714,
854,-10184,10204,-3684,29.57,-202,-1996,-7075,
855,-12640,11844,-4896,29.61,-912,-5904,-1644,
856,-9736,11636,-3168,29.66,393,-2131,-4431,
857,-9864,11004,-2104,29.66,-1572,489,-2798,
858,-11504,13060,-1868,29.57,-4232,1412,-1804,
859,-12424,14092,-1984,29.66,-1778,-1280,6706,
860,-11628,14552,-1372,29.61,1894,-377,13459,
861,-9788,13976,-532,29.61,3508,620,16818,
862,-8636,11432,-1304,29.61,-1122,3881,10844,
863,-8184,13308,-1768,29.66,3764,-262,9362,
864,-8104,11396,-3088,29.66,-1426,3486,5213,
865,-7724,9460,-2924,29.66,1110,1419,5218,
866,-6496,9204,-3092,29.57,-2774,2665,-1092,
867,-4728,6652,-1648,29.75,-2769,4337,-6217,
868,-8440,12896,-5124,29.66,-5379,1566,-7969,
869,-7948,15612,-4868,29.61,408,-1747,-12916,
870,-8232,14384,-3076,29.61,1947,-1417,-11345,
871,-9476,12296,-3456,29.52,-200,625,-14783,
872,-10660,10800,-3460,29.61,-1921,1317,-10780,
873,-10580,13984,-3244,29.66,-1624,-574,-6817,
874,-10532,13928,-2816,29.61,2508,-2942,-4281,
875,-11900,15124,-2796,29.61,2762,-2967,-1176,
876,-11372,12736,-2492,29.57,4502,-2199,8390,
877,-11868,12664,-2560,29.61,1263,1410,10074,
878,-13372,12472,-4040,29.52,-2870,-630,13815,
879,-11652,10700,-3772,29.66,190,-3139,14730,
880,-9544,9592,-2664,29.52,1927,-3544,15022,
881,-7748,8924,-1888,29.61,-799,-206,7669,
882,-7196,9224,-1952,29.61,-1931,835,261,
883,-7448,9412,-1516,29.66,-2461,326,-5186,
884,-9232,10692,-1992,29.57,-1321,-703,-9566,
885,-10056,12036,-2132,29.61,1826,-1494,-11062,
886,-10500,13012,-2580,29.57,3691,-1783,-10280,
887,-10616,13096,-2452,29.66,118,-114,-10684,
888,-11156,11880,-3252,29.61,1165,-49,-7561,
889,-11664,11244,-3624,29.61,3420,-342,-3926,
890,-10968,7068,-4172,29.57,5014,4889,-8763,
891,-9712,9108,-3876,29.57,2870,1652,1803,
892,-12476,12676,-4940,29.57,-104,49,1509,
893,-11996,13064,-6000,29.47,-3282,393,2789,
894,-11620,11720,-5424,29.57,-3777,-938,8760,
895,-11048,10600,-4376,29.52,-937,498,9568,
896,-10204,9888,-3976,29.61,-1773,787,8742,
897,-9968,9168,-3924,29.61,-2381,-178,8133,
898,-11592,8880,-5068,29.61,76,-1767,2668,
899,-9784,10424,-5040,29.47,379,-4147,2985,
900,-8896,10616,-3364,29.66,1050,-2347,68,
901,-9232,10048,-2848,29.57,-4171,1820,-3666,
902,-11548,9012,-3956,29.52,714,-2307,-5095,
903,-10788,9900,-3336,29.52,2852,-3578,-5191,
904,-10576,10112,-2872,29.57,1959,-2046,-6579,
905,-11524,10856,-3068,29.61,749,-698,-7987,
906,-12116,10452,-3132,29.52,1372,-245,-7543,
907,-11500,10088,-2896,29.47,839,298,-5503,
908,-11268,10892,-3052,29.47,751,703,-3548,
909,-11940,11104,-4044,29.57,-189,3099,-1551,
910,-14528,14428,-4352,29.47,-4015,7021,-511,
911,-10112,10140,-5016,29.61,-3114,2885,6907,
912,-10604,11912,-4884,29.57,-1649,1148,10900,
913,-11800,13048,-6096,29.52,-3594,1257,11214,
914,-10624,11976,-6576,29.57,-42,,,
915,-9192,13088,-5080,29.61,-1710,993,-1353,
916,-10064,13668,-3500,29.57,876,841,-1032,
917,-9692,12436,-4492,29.52,-1383,313,-643,
918,-10004,13556,-4608,29.57,1714,255,-801,
919,-9568,11972,-5180,29.52,-162,348,-928,
920,-8960,9248,-5320,29.57,635,-872,-888,
921,-9236,9880,-5424,29.57,-1054,-162,-4453,
922,-9036,12548,-4808,29.57,-2574,1700,-6153,
923,-8404,12784,-4180,29.57,-2396,2824,-3795,
924,-8456,11592,-3340,29.66,783,729,919,
925,-9584,11692,-4224,29.57,1784,-285,2696,
926,-10244,10880,-4968,29.57,1173,-1324,2597,
927,-10132,10392,-5312,29.57,1478,-2078,2454,
928,-9312,10164,-5392,29.57,3505,-3146,3149,
929,-8084,10228,-5360,29.57,2245,-2490,2287,
930,-8612,10244,-6296,29.57,-215,-959,1357,
931,-8340,10036,-6356,29.61,1320,-1284,2527,
932,-8112,10736,-5564,29.52,-839,1059,979,
933,-8248,14452,-4764,29.57,-3932,6530,-2768,
934,-9112,11936,-5784,29.52,-7973,5248,-2159,
935,-9328,11260,-4320,29.52,-2665,-157,4152,
936,-9240,11160,-6120,29.52,-5180,556,2630,
937,-8384,13916,-4588,29.57,-3833,-2376,4533,
938,-6168,14056,-6028,29.52,-5767,-2799,3809,
939,-5756,12988,-5688,29.52,-4099,-8511,8653,
940,-3928,17572,-2476,29.52,-6068,-2252,6579,
941,-5068,13696,-2992,29.57,-5761,-575,3379,
942,-3948,14840,1128,29.52,-2231,-828,2371,
943,-5316,15584,1012,29.52,-5433,925,-695,
944,-4104,15032,720,29.57,-2841,418,-2209,
945,-3676,16156,920,29.47,1305,-2173,115,
946,-3956,15464,428,29.47,-379,519,-1908,
947,-4152,16244,1040,29.61,4001,-893,2237,
948,-4520,14260,548,29.57,-118,1429,-427,
949,-6560,13972,-816,29.52,599,-413,2179,
950,-6060,16444,268,29.47,-2970,-223,2921,
951,-4012,17652,612,29.61,-8702,994,-332,
952,-5648,19788,2904,29.47,-11965,1832,-5287,
953,-2364,23332,2012,29.57,-1629,-16094,20244,
954,-972,17296,2556,29.52,-6997,-6588,10562,
955,1756,14528,5436,29.61,-5907,876,6067,
956,3464,16748,7036,29.66,-4845,4218,1301,
957,2740,16640,4188,29.61,-4115,9705,-3626,
958,-1128,10036,6996,29.61,-1927,2183,-169,
959,1628,15968,5520,29.66,-2131,-4449,1441,
960,-28,13972,3968,29.57,-3096,4918,-14520,
961,-1596,15056,4280,29.52,13690,-7792,278,
962,-2192,13416,740,29.57,-2958,8593,-15414,
963,96,8592,-876,29.47,4845,6339,-15431,
964,-2884,12952,3604,29.52,4297,-1503,-1487,
965,-4572,12688,1508,29.61,-540,-1641,-4981,
966,-6216,16256,2288,29.61,2320,-8333,188,
967,-6140,14836,3164,29.57,264,-6327,-4423,
968,-6584,17260,4484,29.47,1167,-5290,-5538,
969,-6948,27452,5928,29.52,-2981,-3676,3050,
970,-4964,14084,5912,29.61,-2637,-2241,-5560,
971,-5720,14716,4140,29.57,-1641,135,-2949,
972,-6240,12836,4608,29.52,-5426,5945,-9323,
973,-9576,14876,5016,29.52,-962,-1985,-2138,
974,-8616,14444,5696,29.52,-2657,370,-2991,
975,-10100,11960,5608,29.52,-1130,2089,-4611,
976,-10284,10944,5948,29.52,-2062,2436,-4431,
977,-11684,11868,4992,29.52,-248,1058,-3097,
978,-10752,11900,4304,29.61,999,-3116,884,
979,-8324,14364,4040,29.57,73,-1887,576,
980,-9504,12512,5164,29.47,-1133,-824,-1107,
981,-9976,12028,5508,29.57,-1090,-632,-857,
982,-10416,11496,5472,29.47,-396,228,-642,
983,-10320,11552,5340,29.52,-171,136,-390,
984,-10352,12408,4512,29.57,290,-6,260,
985,-10548,11128,4856,29.57,-722,-126,-313,
986,-10560,11508,5292,29.57,339,-534,98,
987,-10184,11900,4320,29.57,410,-1022,237,
988,-9948,12044,5052,29.52,-983,-385,137,
989,-9816,12444,5256,29.47,-597,245,-216,
990,-10260,11580,5164,29.52,-1048,1170,-531,
991,-10364,11632,4932,29.52,-458,588,-199,
992,-10464,11992,4724,29.57,-753,444,-363,
993,-10360,11584,5120,29.61,-505,22,-143,
994,-10208,11944,4976,29.57,-370,198,-91,
995,-9948,11988,4856,29.52,-291,2,-83,
996,-10164,11972,4864,29.57,-406,-13,-267,
997,-10372,11808,4808,29.42,-398,-62,-253,
998,-10492,11644,4740,29.57,-456,-161,-266,
999,-10600,11560,4796,29.47,-392,-452,-177,
1000,-10448,11568,4868,29.42,-37,-952,55,
1001,-10524,11592,4944,29.47,235,-1198,173,
1002,-10808,11532,4920,29.61,564,-1474,290,
1003,-10024,11944,4924,29.57,486,-827,-165,
1004,-9900,12088,4748,29.42,318,-731,-34,
1005,-10004,11804,4808,29.52,-268,-441,14,
1006,-9904,12100,4748,29.47,-224,-117,-163,
1007,-10100,12172,4888,29.42,-387,12,-89,
1008,-10040,11828,5360,29.52,-611,150,-149,
1009,-10052,11948,4988,29.57,-719,123,-95,
1010,-10124,11872,4992,29.52,-652,203,-63,
1011,-10156,11900,4816,29.57,-683,276,-51,
1012,-10180,11828,4848,29.57,-549,196,-32,
1013,-10220,11896,4896,29.52,-657,75,-80,
1014,-10152,11940,4784,29.52,-473,75,-76,
1015,-10240,11864,4808,29.47,-559,-71,-88,
1016,-9384,12908,4568,29.52,-711,-204,33,
1017,-10288,11936,4724,29.57,-373,-400,-223,
1018,-10220,11720,5120,29.47,-462,-474,-129,
1019,-10104,11884,5076,29.52,-283,-420,-146,
1020,-10108,11996,4972,29.42,-151,-434,-105,
1021,-10172,11908,4832,29.42,-219,-371,-139,
1022,-10124,11828,4944,29.42,-97,-366,-129,
1023,-10132,12008,4972,29.47,-169,-408,-142,
1024,-9956,12004,4892,29.47,-53,-59,-172,
1025,-9924,12148,4984,29.52,-375,115,-266,
1026,-10232,12092,4396,29.52,-646,249,-183,
1027,-10056,11828,4936,29.57,-1066,417,-174,
1028,-10152,12044,4756,29.47,-788,177,-285,
1029,-10264,11776,4904,29.47,-899,171,-171,
1030,-10456,11632,4916,29.52,-647,221,-203,
1031,-10308,11644,4876,29.52,-490,78,-131,
1032,-10176,11868,4972,29.57,-424,-222,-83,
1033,-10024,11940,4984,29.52,-274,-258,-128,
1034,-10180,11864,4820,29.52,-268,-196,-199,
1035,-10344,11920,4880,29.52,-271,-335,-166,
1036,-10220,11780,4716,29.52,-196,-328,-97,
1037,-10144,12096,4644,29.57,-126,-483,-53,
1038,-10272,11980,4788,29.57,-222,-322,-73,
1039,-10144,11968,4848,29.42,-260,-279,-81,
1040,-10128,11924,4788,29.57,-163,-134,-29,
1041,-10144,11972,4716,29.47,-143,-52,-118,
1042,-10252,11988,4572,29.47,-448,-161,-72,
1043,-10108,12124,4940,29.52,-396,-356,-39,
1044,-10052,11944,4952,29.52,-319,-132,-127,
1045,-10152,11872,4952,29.52,-376,-71,-131,
1046,-10192,11912,4724,29.47,-330,-78,-162,
1047,-10260,11916,4736,29.47,-327,-91,-136,
1048,-10008,11904,4700,29.52,-369,-151,-143,
1049,-10208,11952,4880,29.52,-393,-218,-186,
1050,-10080,11956,4720,29.52,-323,-217,-115,
1051,-10236,11908,4636,29.61,-281,-258,-154,
1052,-10184,11888,4872,29.52,-347,-323,-118,
1053,-10196,12104,4832,29.38,-206,-417,-18,
1054,-9952,12200,4720,29.47,-338,-269,-128,
1055,-9868,11800,4704,29.47,-270,-18,-177,
1056,-10032,11904,4816,29.52,-316,-163,-139,
1057,-10180,11944,4856,29.52,-347,-157,-127,
1058,-10032,12024,4696,29.42,-271,-213,-58,
1059,-9988,11676,5256,29.47,-187,143,-157,
1060,-10068,12064,4736,29.61,-400,-114,-125,
1061,-10148,12092,4792,29.52,-384,-96,-151,
1062,-10184,11988,4844,29.61,-373,-115,-107,
1063,-10184,11916,4700,29.52,-374,-70,-127,
1064,-10164,12080,4728,29.38,-400,-198,-86,
1065,-10108,12008,4692,29.47,-349,-186,-90,
1066,-10200,11984,4700,29.47,-367,-205,-122,
1067,-10024,11940,4840,29.47,-385,-211,-120,
1068,-10108,12088,4676,29.57,-383,-276,-135,
1069,-10112,11964,4936,29.47,-346,-295,-143,
1070,-10116,12072,4896,29.52,-359,-278,-136,
1071,-10152,12036,4784,29.52,-365,-279,-155,
1072,-10084,11992,4692,29.42,-372,-281,-104,
1073,-10140,12008,4860,29.52,-332,-245,-140,
1074,-10012,12064,4700,29.42,-422,-290,-73,
1075,-10148,12068,4852,29.52,-363,-180,-119,
1076,-10052,12080,4720,29.47,-422,-221,-113,
1077,-9988,11968,4820,29.47,-447,-170,-151,
1078,-10088,12076,4868,29.42,-407,-149,-130,
1079,-9912,12048,4772,29.52,-372,-142,-159,
1080,-10040,12000,4860,29.52,-394,-184,-168,
1081,-10132,11984,4920,29.47,-385,-213,-121,
1082,-10000,11988,4864,29.47,-410,-196,-93,
1083,-10160,11952,4800,ˇ                                                ,,,,
Sample,aX,aY,az,Temp,gX,gY,gz                                                   ,
1,-4236,18380,4912,30.32,815,-2957,278,
2,-3308,17476,3668,30.37,2568,254,-690,
3,-2092,22464,-536,30.37,-12747,9249,-10000,
4,-6264,16292,5488,30.41,-2101,1180,-8388,
5,-8188,13956,2152,30.41,4869,-6424,-2621,
6,-5904,15808,1768,30.41,-3358,-3616,3612,
7,-5616,16244,1580,30.41,-2654,-3688,4605,
8,-5316,13628,2428,30.32,-3467,-2165,2123,
9,-4808,16076,3992,30.32,144,-4075,662,
10,-3908,14516,3916,30.37,3265,-5945,806,
11,-3936,15912,2224,30.37,214,-3827,-1009,
12,-5248,16148,4192,30.37,-1477,-4325,-1083,
13,-4828,15188,3496,30.27,98,-3902,531,
14,-4432,14980,3992,30.41,-234,-1193,446,
15,-4552,15324,4252,30.32,-44,-628,114,
16,-4400,15232,3740,30.32,-202,-600,894,
17,-4004,15764,3804,30.46,-295,-289,1108,
18,-3968,15796,3596,30.37,-210,155,757,
19,-3660,15800,3612,30.32,-268,288,214,
20,-3336,15364,3964,30.41,-544,-49,42,
21,-3388,15908,4048,30.37,-152,-263,-162,
22,-3840,15620,3740,30.32,-392,261,-460,
23,-4068,15820,3492,30.37,-291,479,-239,
24,-4104,15492,3444,30.32,-320,407,-164,
25,-4232,15548,3688,30.41,-764,265,18,
26,-4008,15560,3724,30.41,-589,151,95,
27,-3892,15516,3684,30.32,-473,-57,9,
28,-3956,15488,3772,30.22,-413,-50,-171,
29,-4112,15440,3756,30.37,-427,-92,-32,
30,-4012,16112,3848,30.32,-278,-165,38,
31,-3844,15252,3716,30.27,-359,-106,-130,
32,-4184,15284,3996,30.41,-295,-400,-197,
33,-4120,15624,3676,30.41,32,-1189,227,
34,-4132,15824,3748,30.37,339,-1313,304,
35,-3864,16172,3336,30.41,42,-1416,216,
36,-3976,15544,3784,30.41,-472,-900,-108,
37,-3736,15584,3720,30.41,-206,-1001,154,
38,-3628,15724,3668,30.37,-468,-574,-94,
39,-3600,15632,3692,30.41,-401,-543,-113,
40,-3488,15612,3740,30.32,-575,,,