,-4,-710,192,,,,,,
541,4172,7592,-12224,31.64,1018,-966,1003,,
542,4212,6784,-11292,31.59,13,-215,,-710,192
541,4172,7592,-12224,31.64,1018,-966,1003,,
542,4212,6784,-11292,31.59,13,-215,,-710,192
541,4172,7592,-12224,31.64,1018,-966,1003,,
542,4212,6784,-11292,31.59,13,-215,                              ,,
Sample,aX,aY,az,Temp,gX,gY,gz                                                   ,,
1,10280,4996,-9620,31.68,-1104,3947,-1600,,
2,12184,3936,-9548,31.68,-1610,467,-256,,
3,11684,5104,-9288,31.68,-2393,2224,141,,
4,11352,6292,-9472,31.73,-3383,1738,441,,
5,12344,5308,-7576,31.64,249,7529,-156,,
6,12332,5728,-7184,31.64,-864,7326,1094,,
7,Ò                                                                             ,,,,,,,,
Sample,aX,aY,az,Temp,gX,gY,gz                                                   ,,
1,11608,6924,-8104,31.64,-431,-189,-138,,
2,11560,6928,-7996,31.64,-427,-282,-152,,
3,11572,7000,-7968,31.68,-470,-80,-139,,
4,11592,7024,-8204,31.68,-599,-382,-187,,
5,11628,7048,-8000,31.64,-472,-435,-227,,
6,11508,7020,-8112,31.64,-323,6,-50,,
7,11480,7056,-8056,31.64,-385,-111,-116,,
8,11548,6996,-8092,31.64,-284,-26,-108,,
9,11680,7044,-7868,31.64,-402,-115,-164,,
10,11688,7100,-8012,31.78,-409,-196,-94,,
11,11572,7076,-7964,31.64,-422,-156,-98,,
12,11608,7032,-8120,31.64,-429,-28,-95,,
13,11596,7056,-7988,31.64,-397,-188,-128,,
14,11428,7028,-8140,31.73,-357,-66,-138,,
15,11624,7108,-8076,31.64,-435,-72,-124,,
16,11528,7064,-7932,31.73,-334,-82,-130,,
17,11600,7044,-8088,31.64,-347,-37,-126,,
18,11592,7200,-7992,31.68,-379,-163,-128,,
19,11580,7024,-7912,31.68,-299,-217,-108,,
20,11624,7104,-8044,31.68,-400,-196,-108,,
21,11664,7136,-7848,31.68,-309,-269,-102,,
22,11540,7128,-8060,31.78,-302,-139,-61,,
23,11608,7136,-7964,31.59,-391,-167,-119,,
24,11580,7132,-8060,31.78,-337,-310,-130,,
25,11600,7104,-8076,31.68,-476,-500,-96,,
26,11504,7192,-8120,31.68,-410,-121,-125,,
27,11668,7152,-8088,31.59,-424,-73,-114,,
28,11584,7132,-8036,31.64,-323,-235,-99,,
29,11592,7160,-7980,31.64,-292,-332,-108,,
30,11492,7072,-7860,31.73,-427,-218,-67,,
31,11600,7144,-8032,31.64,-380,-235,-62,,
32,11580,6972,-7960,31.64,-331,-212,-89,,
33,11584,7104,-8032,31.64,-360,-67,-95,,
34,11592,7144,-8048,31.68,-367,-101,-111,,
35,11528,7156,-8052,31.68,-430,-207,-116,,
36,11652,7068,-7928,31.68,-392,-216,-122,,
37,11540,7168,-7960,31.64,-384,-117,-129,,
38,11540,7196,-8144,31.73,-361,-165,-90,,
39,11524,7096,-8032,31.68,-327,-199,-122,,
40,11564,6972,-7988,31.59,-378,-295,-101,,
41,11552,7120,-8008,31.68,-405,-385,-119,,
42,11440,7104,-8136,31.54,-375,-141,-98,,
43,11700,7276,-8132,31.68,-255,66,-191,,
44,11576,7168,-7896,31.54,-144,-425,-265,,
45,11748,7312,-7992,31.59,7,-916,-304,,
46,11496,7136,-8052,31.68,-244,-707,-174,,
47,11248,7044,-8056,31.78,-360,-201,-29,,
48,11332,7248,-8324,31.68,-443,-593,-8,,
49,11356,7112,-8008,31.59,-283,-109,-81,,
50,11452,7012,-8256,31.64,-447,246,-56,,
51,11400,7164,-8192,31.68,-357,22,-109,,
52,11380,7184,-8024,31.64,-361,-128,-102,,
53,11556,7096,-8036,31.73,-415,-66,-86,,
54,11448,7092,-8112,31.73,-373,-219,-89,,
55,11520,7172,-8168,31.64,-378,-271,-77,,
56,11440,6972,-8056,31.64,-357,-315,-119,,
57,11492,7152,-8172,31.64,-326,-27,-134,,
58,11604,7164,-7996,31.68,-298,-471,-141,,
59,11552,7120,-8132,31.64,-345,-830,-12,,
60,11380,7012,-8224,31.78,-659,-1021,-47,,
61,11332,7104,-8292,31.59,-446,-150,-99,,
62,11344,7064,-8132,31.59,-307,-269,-87,,
63,11532,7156,-8392,31.68,-430,-908,-8,,
64,11360,7124,-8328,31.64,-436,-421,-78,,
65,11276,7164,-8312,31.64,-415,-616,-111,,
66,11240,7100,-8468,31.64,-257,-126,-106,,
67,11188,7112,-8192,31.64,-379,24,-98,,
68,11360,7140,-8400,31.68,-319,216,-108,,
69,11388,7104,-8196,31.64,-333,-173,-67,,
70,11356,7132,-8300,31.64,-328,-254,-100,,
71,11148,7080,-8260,31.64,-393,-124,-102,,
72,11284,7128,-8236,31.64,-279,-2,-97,,
73,11400,7032,-8388,31.59,-246,-69,-100,,
74,11400,7136,-8276,31.73,-368,-172,-110,,
75,11300,7072,-8396,31.64,-413,-39,-89,,
76,11284,7112,-8180,31.64,-362,-70,-94,,
77,11336,7124,-8132,31.59,-328,-82,-92,,
78,11324,7076,-8208,31.64,-413,-217,-119,,
79,11404,7080,-8236,31.64,-311,-288,-133,,
80,11300,6964,-8436,31.64,-344,-302,-202,,
81,11440,7104,-7920,31.73,-482,-400,-131,,
82,11364,7136,-8440,31.64,-332,-138,-87,,
83,11308,7108,-8260,31.64,-346,-28,-109,,
84,11436,7144,-8308,31.64,-286,-246,-121,,
85,11140,6996,-8156,31.73,-413,-47,-59,,
86,11360,7132,-8316,31.64,-481,93,-27,,
87,11416,7072,-8156,31.59,-346,-327,-154,,
88,11340,7240,-8380,31.68,-239,-773,-101,,
89,11128,7044,-8112,31.68,-380,-662,-111,,
90,11224,7124,-8416,31.68,-401,-940,-103,,
91,11084,7096,-8376,31.59,-185,-679,-191,,
92,11172,6992,-8452,31.59,-219,-503,-207,,
93,11052,7012,-8348,31.64,-397,-660,-83,,
94,10996,7060,-8664,31.59,-338,-281,-104,,
95,11108,7080,-8568,31.64,-382,-112,-53,,
96,11128,7100,-8464,31.68,-360,-88,-60,,
97,11124,7052,-8360,31.68,-407,-32,-59,,
98,11236,7076,-8536,31.64,-440,-95,-67,,
99,11036,7112,-8524,31.68,-489,-378,-47,,
100,11244,7156,-8572,31.68,-351,-172,-55,,
101,11108,7184,-8620,31.59,-385,-511,-72,,
102,11104,7124,-8620,31.78,-364,-143,-73,,
103,11172,7108,-8492,31.68,-393,-56,-135,,
104,11224,7124,-8480,31.59,-383,-201,-102,,
105,11008,7228,-8384,31.73,-334,-227,-91,,
106,11088,7192,-8644,31.64,-436,-305,-56,,
107,11064,7132,-8472,31.73,-402,-221,-126,,
108,11112,7040,-8412,31.64,-267,147,-87,,
109,11100,7164,-8496,31.73,-252,-346,-85,,
110,10988,7076,-8552,31.73,-338,286,-87,,
111,11148,7112,-8592,31.64,-295,28,-77,,
112,11168,7140,-8588,31.59,-284,-374,-93,,
113,11184,6968,-8484,31.68,-284,-206,-118,,
114,11184,7156,-8400,31.64,-460,-208,-98,,
115,11144,7120,-8672,31.64,-404,-140,-94,,
116,11096,7140,-8564,31.64,-359,-504,-107,,
117,11016,7128,-8468,31.68,-375,-292,-73,,
118,11060,7076,-8480,31.68,-340,-160,-109,,
119,11056,7128,-8660,31.64,-201,-116,-81,,
120,11196,7052,-8732,31.64,-90,-188,-125,,
121,11164,7068,-8448,31.73,-484,-361,-82,,
122,11104,7116,-8428,31.64,-523,-154,-63,,
123,11152,7180,-8804,31.64,-189,452,-79,,
124,11152,6964,-8696,31.64,-587,-483,-53,,
125,11200,7180,-8256,31.73,-200,628,-74,,
126,11144,7024,-8452,31.64,-260,291,-116,,
127,11400,7084,-8468,31.64,-362,-350,-127,,
128,11216,6992,-8320,31.68,-273,-544,-152,,
129,11268,7080,-8680,31.64,-199,-324,-122,,
130,11128,7008,-8364,31.73,-467,-125,-71,,
131,11120,7152,-8536,31.64,-258,201,-109,,
132,11236,7056,-8384,31.54,-400,-379,-60,,
133,11212,7132,-8528,31.59,-334,-113,-125,,
134,11204,7020,-8504,31.59,-420,-208,-105,,
135,11216,6972,-8484,31.73,-500,-455,-142,,
136,11076,7116,-8464,31.64,-296,177,-134,,
137,11280,7084,-8448,31.64,-442,-97,-122,,
138,11176,7108,-8540,31.68,-259,-10,-121,,
139,11268,7092,-8512,31.68,-431,-302,-91,,
140,11252,7056,-8432,31.59,-436,-316,-106,,
141,11144,7240,-8512,31.68,-277,-158,-115,,
142,11072,7096,-8216,31.64,-391,-711,-129,,
143,11468,6996,-8440,31.68,-544,498,-199,,
144,11096,7268,-8368,31.59,-11,-1613,-249,,
145,10944,7204,-8544,31.64,-776,-625,40,,
146,11416,7172,-8184,31.68,-314,778,-23,,
147,11128,7000,-8916,31.59,-146,-1268,-222,,
148,10888,7172,-8260,31.73,-444,144,-27,,
149,11324,7112,-8632,31.64,-365,-433,-89,,
150,11028,6964,-8400,31.64,-358,-307,-104,,
151,11060,7088,-8512,31.54,-394,-35,-137,,
152,11152,7156,-8348,31.68,-526,82,-39,,
153,11236,7080,-8568,31.64,-401,-48,-85,,
154,11156,7092,-8344,31.73,-319,-139,-98,,
155,11116,7044,-8348,31.64,-445,-214,-62,,
156,11088,7124,-8312,31.64,-373,238,-71,,
157,11340,7100,-8548,31.64,-488,140,-221,,
158,11200,6976,-8200,31.73,-393,-418,-180,,
159,11140,7096,-8364,31.64,-384,173,-144,,
160,11212,7212,-8352,31.59,-711,-419,-322,,
161,10896,7328,-8428,31.59,-837,-1086,-721,,
162,11052,7392,-8680,31.82,-862,-1123,-588,,
163,10984,7356,-8316,31.59,-944,#NAME?,,,
164,4868,9104,-3504,31.78,-1629,11840,-3451,,
165,3328,8784,-1196,31.68,-1726,8372,-3726,,
166,5856,9804,-2044,31.64,-30,600,-6135,,
167,9228,14936,-3512,31.64,-3624,-3983,-6710,,
168,9900,15352,-4020,31.68,-5960,-4249,-3575,,
169,9092,10204,-668,31.64,-273,5582,-1213,,
170,7644,12756,-320,31.64,6595,13374,-3995,,
171,7872,13344,-1084,31.64,-9082,-5343,-1630,,
172,6316,18128,-4332,31.59,-11241,-12323,-2878,,
173,4684,16680,-564,31.68,-10627,-13978,1579,,
174,6072,14192,-312,31.73,-5210,-4435,-202,,
175,5200,13920,-780,31.68,-9101,-3051,271,,
176,5924,14340,1984,31.59,-3983,-2432,-976,,
177,6652,16484,1700,31.68,-2776,-3161,-1912,,
178,5964,12696,1784,31.54,-5155,-4293,-738,,
179,5916,13564,2308,31.68,445,4804,-443,,
180,5384,15828,936,31.64,589,1030,2451,,
181,5984,15588,792,31.59,2016,-771,3079,,
182,5208,17064,2060,31.64,1195,-2587,342,,
183,7616,16160,-280,31.73,6517,-1717,847,,
184,6172,15032,1324,31.68,1531,-4533,2183,,
185,7464,15236,-1748,31.68,4268,-528,158,,
186,7464,15504,-1832,31.78,973,-3225,91,,
187,6460,14468,-2140,31.73,885,-940,923,,
188,6220,14640,-1972,31.73,2456,412,-428,,
189,6480,13960,-1284,31.68,3233,-2660,1366,,
190,7120,13872,-3108,31.73,3519,-3583,2931,,
191,7912,14236,-4264,31.64,1959,-454,2746,,
192,7112,13972,-3008,31.64,377,3144,1540,,
193,5388,14504,-3036,31.73,3685,8917,-2364,,
194,6504,15004,-3576,31.78,4523,9472,-3884,,
195,7628,14348,-2032,31.68,6670,7729,-1579,,
196,10356,12204,-3716,31.73,4046,6204,-3614,,
197,10516,13188,-2868,31.68,1928,3858,-623,,
198,10324,12636,-4252,31.73,4948,7761,732,,
199,9204,12504,-3788,31.73,4578,4541,1544,,
200,8928,12788,-3540,31.64,1418,2174,206,,
201,9964,13332,-3944,31.78,5876,5694,-180,,
202,9752,12064,-3836,31.82,1594,2545,-398,,
203,10184,11968,-5408,31.73,7091,11560,-3752,,
204,9148,12408,-4276,31.68,4807,7674,-5565,,
205,9720,13436,-3616,31.64,5805,4777,-5681,,
206,10272,11836,-3352,31.73,2003,359,-2197,,
207,10344,11424,-4200,31.73,-1390,1959,-283,,
208,8148,12604,-3272,31.73,-8990,-6235,1412,,
209,9220,12620,-4284,31.64,-9260,-4907,-811,,
210,9180,13280,-3144,31.68,-4507,-3376,394,,
211,8224,13296,-1956,31.64,-4232,-4784,-788,,
212,8860,13104,-2336,31.68,-2788,-1162,-1144,,
213,8668,13768,-2356,31.64,-2748,204,-1088,,
214,8316,13800,-3144,31.59,-1901,2,26,,
215,8192,13668,-2772,31.68,-51,-816,-206,,
216,8124,13996,-2280,31.68,936,-904,-684,,
217,8040,13768,-2312,31.64,1223,-190,-660,,
218,8072,13900,-1844,31.68,582,52,-353,,
219,8108,14292,-1924,31.73,-504,49,-233,,
220,8104,14072,-2112,31.68,148,1114,66,,
221,8104,13680,-1856,31.64,-70,834,-855,,
222,8008,13924,-2616,31.68,-1419,-259,48,,
223,8256,13904,-2600,31.68,-330,-474,259,,
224,8080,14168,-1124,31.73,-1546,341,-627,,
225,8444,14288,-1548,31.54,-1770,2048,-369,,
226,7836,13600,-1752,31.68,-913,1991,380,,
227,8400,13900,-1960,31.68,-1099,215,802,,
228,8228,13688,-1712,31.59,-1677,830,-245,,
229,8400,13744,-2384,31.68,159,99,659,,
230,8484,14028,-1652,31.73,291,-1314,601,,
231,8720,13980,-1260,31.68,390,-1013,221,,
232,8936,13976,-2112,31.68,1006,44,269,,
233,8996,13964,-1872,31.73,-1032,-3540,589,,
234,8240,13776,-1892,31.68,1660,490,-944,,
235,8596,13216,-1960,31.73,2433,248,-782,,
236,9060,13732,-2172,31.73,20,-2616,1185,,
237,8552,13688,-2384,31.64,-1259,-2305,877,,
238,8820,13740,-2644,31.64,-204,-165,824,,
239,8240,13100,-1876,31.64,-240,290,-427,,
240,8804,13668,-2536,31.64,-1064,-433,-637,,
241,8444,13332,-2020,31.73,-432,-152,-1258,,
242,8444,13576,-1764,31.68,-2707,-990,-941,,
243,9460,13340,-2200,31.78,-2803,-2787,129,,
244,7272,14176,-2764,31.73,373,870,533,,
245,8052,13732,-2160,31.64,231,-145,144,,
246,8620,13832,-2100,31.64,-390,-840,58,,
247,8468,13656,-2040,31.78,-247,-868,300,,
248,8292,13628,-2204,31.64,-1155,-1571,-104,,
249,8188,13768,-2208,31.68,-753,-1164,-476,,
250,8372,13832,-2236,31.73,-550,-1492,-184,,
251,8324,13800,-2180,31.64,-304,-1450,-159,,
252,8020,13912,-2232,31.68,-332,-1503,-298,,
253,7988,13796,-2224,31.68,-380,-254,-247,,
254,8148,13844,-2128,31.68,-125,159,-305,,
255,8308,13928,-2236,31.68,-728,-61,-127,,
256,8132,13908,-2668,31.68,-986,61,16,,
257,7848,13660,-2560,31.68,-697,-49,79,,
258,8236,14068,-2220,31.73,-121,675,-210,,
259,8172,13708,-2472,31.73,266,1458,-859,,
260,8184,13772,-2284,31.73,-484,-170,17,,
261,8048,13940,-2284,31.78,-789,-223,30,,
262,7956,13752,-2316,31.59,-235,55,-21,,
263,8112,13820,-2200,31.73,-137,-95,-83,,
264,8276,13872,-2264,31.68,-114,-316,-3,,
265,8304,13920,-2256,31.68,-475,-441,40,,
266,8216,13812,-2384,31.59,-403,-242,-52,,
267,8224,13768,-2328,31.68,-272,-163,-75,,
268,8228,13848,-2164,31.68,-445,-251,-113,,
269,8192,13808,-2496,31.64,-427,-499,-49,,
270,8120,13788,-2136,31.73,-431,-537,-93,,
271,8292,13780,-2312,31.64,-387,-384,-101,,
272,8164,13892,-2304,31.68,-410,-460,-77,,
273,8104,13956,-2176,31.78,-436,-498,-116,,
274,8020,13776,-2216,31.73,-303,-335,-206,,
275,8244,13876,-2116,31.73,-485,-80,-289,,
276,8180,13808,-2216,31.64,-683,-366,-149,,
277,8112,13868,-2312,31.68,-383,-269,-59,,
278,8152,13748,-2344,31.78,-465,-288,-38,,
279,8136,13752,-2276,31.68,-441,-360,-25,,
280,8188,14036,-2012,31.78,-654,-286,-30,,
281,8128,13780,-2112,31.59,-411,-184,-58,,
282,8092,13804,-2168,31.78,-500,-120,-154,,
283,8172,13896,-2292,31.73,-436,-258,-54,,
284,8140,13800,-1988,31.73,-349,-346,-111,,
285,7968,13864,-2164,31.73,-479,-245,-175,,
286,7996,13912,-2340,31.78,-430,-285,-105,,
287,7976,13860,-2120,31.68,-290,-253,-101,,
288,8248,13848,-2204,31.82,-252,-188,-131,,
289,8220,13784,-2264,31.73,-372,-111,-165,,
290,8092,13948,-2292,31.64,-352,-162,15,,
291,8100,13856,-2168,31.73,-342,-88,-36,,
292,8136,13904,-2200,31.73,-360,-158,-53,,
293,8132,13836,-2160,31.73,-294,-175,-85,,
294,8196,13856,-2296,31.73,-337,-93,-102,,
295,8136,13820,-2288,31.73,-390,-204,-90,,
296,8208,13876,-2060,31.73,-382,-232,-83,,
297,8132,13872,-2216,31.59,-325,-268,-73,,
298,8072,13936,-2256,31.78,-268,-287,-18,,
299,8196,13896,-2116,31.78,-309,-307,27,,
300,8200,13780,-2240,31.73,-278,-219,-66,,
301,8276,13892,-2108,31.68,-498,-294,-76,,
302,8104,13840,-2192,31.68,-472,-332,-53,,
303,8176,13936,-2192,31.68,-649,-283,25,,
304,8116,13828,-2204,31.68,-768,35,-296,,
305,8140,13912,-2376,31.68,-64,-659,93,,
306,8240,13844,-2208,31.73,-110,-412,117,,
307,8172,13876,-2152,31.73,-409,96,13,,
308,8256,13820,-1968,31.78,-635,144,-157,,
309,8180,13968,-2340,31.68,-434,-216,-153,,
310,8096,13816,-1960,31.73,-613,-184,-208,,
311,8284,13868,-2156,31.82,-505,-251,-122,,
312,8320,13916,-2028,31.68,-521,-290,-118,,
313,8096,13868,-2164,31.73,-566,-416,-122,,
314,8232,13856,-2084,31.64,-484,-727,-105,,
315,8184,13820,-2376,31.68,-459,-861,-17,,
316,8040,13884,-2272,31.78,-404,-951,56,,
317,7980,13840,-2204,31.78,-335,-931,30,,
318,8088,13904,-2220,31.78,-397,-729,6,,
319,8120,13844,-2176,31.73,-328,-464,-49,,
320,8052,13840,-2372,31.73,-483,-476,-69,,
321,8128,13820,-2324,31.73,-481,-504,-12,,
322,8120,13840,-2224,31.82,-490,-411,-65,,
323,8140,13860,-2304,31.73,-653,-425,-80,,
324,8160,13872,-2216,31.64,-611,-564,-2,,
325,8180,13952,-2092,31.64,-659,-659,29,,
326,7988,13928,-2204,31.73,-590,-689,76,,
327,8036,13868,-2152,31.78,-672,-761,-19,,
328,7944,13840,-2192,31.78,-478,-497,-115,,
329,8040,14024,-2340,31.73,-478,-427,-47,,
330,7828,13924,-2260,31.73,-160,-326,-131,,
331,7944,13844,-2140,31.64,-366,-17,-169,,
332,7944,14160,-2488,31.73,-21,402,-74,,
333,8260,13956,-2576,31.64,923,1010,144,,
334,8120,13696,-1712,31.68,-61,410,-414,,
335,8152,13784,-2100,31.68,-838,-336,-163,,
336,8016,13988,-2196,31.73,-1200,-394,-337,,
337,7852,14188,-2780,31.68,286,596,-192,,
338,7752,13636,-2112,31.64,1579,1321,-492,,
339,8272,13768,-1940,31.78,547,656,-1482,,
340,7940,13756,-2748,31.68,321,-810,-1001,,
341,7416,13728,-1900,31.73,-536,-2763,-1184,,
342,7488,14104,-2864,31.68,-382,-1525,-1247,,
343,8024,14316,-3060,31.73,-501,-1003,-892,,
344,7896,14036,-3124,31.68,-1291,-1479,-706,,
345,7348,14104,-3188,31.73,-1299,-536,-407,,
346,7260,14504,-3308,31.68,-524,312,-319,,
347,7340,14328,-2880,31.78,-232,582,-182,,
348,7332,14128,-2752,31.82,-296,656,-134,,
349,7216,14252,-2700,31.73,-540,811,-203,,
350,7344,14192,-2724,31.64,97,1099,-354,,
351,7252,13960,-2284,31.73,148,341,-428,,
352,7028,14104,-2420,31.64,-536,-478,-188,,
353,7728,14112,-2440,31.73,-850,-815,-88,,
354,7196,13980,-2204,31.64,-1156,-588,782,,
355,7772,14492,-2244,31.78,-1756,-882,799,,
356,7576,14672,-2980,31.78,-845,936,1791,,
357,6868,14232,-2304,31.78,1011,1969,-1058,,
358,8312,13768,-2264,31.82,58,-385,-49,,
359,7704,13932,-2020,31.64,-637,-1767,426,,
360,7824,14020,-2304,31.64,-1389,-914,763,,
361,7476,14168,-2708,31.68,-498,245,690,,
362,7780,13836,-2368,31.78,174,-247,21,,
363,7848,13928,-2120,31.73,-71,-646,670,,
364,7784,13752,-2268,31.73,430,617,561,,
365,7792,13652,-1716,31.68,-121,711,-890,,
366,7796,13172,-1776,31.68,-493,-348,-156,,
367,7240,14616,-1312,31.82,-1626,-1322,-313,,
368,4872,12668,856,31.78,423,-2911,781,,
369,7720,14428,-3028,31.59,-512,-53,-1068,,
370,7880,14336,-2832,31.68,-602,152,-609,,
371,8000,14220,-2600,31.68,-517,548,-647,,
372,7760,14156,-2260,31.73,-297,961,-666,,
373,7628,13976,-1916,31.73,-348,646,-516,,
374,7700,14164,-1776,31.82,-549,123,-630,,
375,7548,14380,-1800,31.73,-584,-282,-405,,
376,7808,14196,-1864,31.82,-812,-863,-443,,
377,7696,14488,-2152,31.68,-268,-486,-437,,
378,7600,14292,-2260,31.78,-260,-277,-119,,
379,7440,14228,-2284,31.64,55,-184,-239,,
380,7644,14548,-1928,31.73,206,-233,-616,,
381,6744,13552,-1724,31.82,-253,-571,-414,,
382,7816,14532,-2804,31.73,981,1067,-835,,
383,6828,13552,-1868,31.82,1157,-1985,32,,
384,7928,16400,-3224,31.68,2447,-564,-298,,
385,8016,12552,-3064,31.73,3422,-315,1337,,
386,6340,14908,-3188,31.73,263,-4760,908,,
387,7536,13392,-3984,31.68,-374,-1874,-167,,
388,7484,13808,-3360,31.82,-1543,-485,1756,,
389,7456,14076,-3756,31.78,-1131,-964,1397,,
390,7620,13404,-3960,31.73,214,136,1194,,
391,7356,13460,-3612,31.68,628,1076,-842,,
392,7708,14444,-3448,31.78,-180,767,-1993,,
393,7976,14156,-3772,31.73,-610,806,318,,
394,7356,13216,-4168,31.64,514,1401,298,,
395,7444,13464,-2976,31.73,-872,354,-2075,,
396,7940,14284,-3476,31.73,-1925,-885,-11,,
397,7892,13544,-4996,31.68,-268,-1055,2152,,
398,6804,13252,-2384,31.78,2087,243,-2154,,
399,8788,14332,-3308,31.64,-4947,-3720,133,,
400,5932,12928,-3748,31.82,4215,1755,660,,
401,9096,13844,-3748,31.73,-3373,-2755,-586,,
402,6460,13292,-3524,31.73,2174,1272,-21,,
403,8492,13916,-3972,31.73,-2095,-1684,-239,,
404,6976,13404,-4540,31.78,680,591,542,,
405,8088,13428,-3876,31.68,216,-769,-436,,
406,7336,13912,-3492,31.68,-2010,-1579,739,,
407,7412,13236,-4036,31.64,-1429,-1549,386,,
408,7760,13456,-3812,31.68,-2135,-855,535,,
409,7716,13600,-3316,31.68,-2279,-203,1019,,
410,8044,13788,-3412,31.73,-2800,-591,1283,,
411,8148,13588,-2932,31.68,-1948,-422,1784,,
412,8284,13736,-3200,31.64,-1923,-297,1128,,
413,8276,13488,-2800,31.68,-546,-59,1118,,
414,8420,13568,-2448,31.78,-747,-506,449,,
415,8524,13544,-2476,31.78,-533,200,134,,
416,8508,13404,-2512,31.73,-221,945,-494,,
417,8656,13664,-2420,31.68,-386,918,-687,,
418,8580,13424,-2504,31.68,-353,664,-437,,
419,8696,13568,-2520,31.68,-632,159,-53,,
420,8588,13548,-2308,31.68,-244,301,-491,,
421,8588,13556,-2156,31.78,-332,574,-512,,
422,8564,13524,-2248,31.68,-276,551,-810,,
423,8332,13604,-2524,31.68,-129,707,-856,,
424,8512,13624,-2120,31.73,-96,574,-653,,
425,8448,13756,-2520,31.78,-192,322,340,,
426,8584,13460,-2432,31.78,-800,-328,555,,
427,8784,13604,-1864,31.68,-1357,-542,313,,
428,8792,13968,-2152,31.73,-1565,559,1472,,
429,8140,13348,-2476,31.78,896,1917,-418,,
430,9044,13604,-1736,31.78,967,1978,-3788,,
431,9172,13952,-1496,31.78,-1219,-2692,74,,
432,8528,13768,-2688,31.73,-1754,-3052,3423,,
433,8376,13660,-2096,31.68,313,63,-833,,
434,8744,13616,-2360,31.78,1636,618,-224,,
435,8844,13428,-1700,31.78,-652,-2583,424,,
436,8528,13652,-2572,31.82,-1212,-1030,1119,,
437,8684,13624,-2236,31.68,311,619,-729,,
438,8928,13500,-2196,31.78,-100,348,203,,
439,8928,13420,-1712,31.78,-424,-52,-202,,
440,8480,13484,-1996,31.78,-701,1445,-415,,
441,8856,13368,-2948,31.87,-870,1493,517,,
442,9036,13476,-1448,31.68,-10,1474,-312,,
443,9112,13344,-1500,31.64,-2285,45,213,,
444,8808,13460,-1732,31.68,-1626,1048,-423,,
445,9280,13656,-1784,31.73,-857,207,-594,,
446,9180,13888,-1500,31.64,816,71,-307,,
447,8872,13448,-1312,31.64,-417,-738,-962,,
448,8640,13740,-1500,31.82,-564,-937,-364,,
449,8764,13732,-1612,31.68,461,-287,-621,,
450,8804,13756,-1520,31.68,527,-1357,-169,,
451,8436,13856,-1968,31.82,441,-1716,-81,,
452,8608,13532,-2092,31.73,763,-970,-739,,
453,8400,13628,-2376,31.78,1760,-585,-66,,
454,8532,13904,-1936,31.68,1641,-638,-429,,
455,8392,13436,-2728,31.78,-323,-1213,839,,
456,8388,13612,-3064,31.73,-1082,-1029,-239,,
457,8356,13464,-2756,31.78,-252,-665,-13,,
458,8352,13460,-2820,31.82,-595,-1181,147,,
459,8376,13492,-2716,31.82,-1176,-957,-395,,
460,8444,13596,-2716,31.68,-341,170,-611,,
461,8504,13476,-2628,31.73,-129,26,232,,
462,8372,13448,-2532,31.78,-1076,-352,109,,
463,8412,13628,-2768,31.73,-832,45,-562,,
464,8488,13564,-2680,31.78,-459,110,-305,,
465,8472,13572,-2608,31.78,-851,-238,1,,
466,8448,13612,-2768,31.87,-843,-312,244,,
467,8412,13568,-2648,31.78,-708,-160,-80,,
468,8380,13664,-2760,31.68,-582,-125,-157,,
469,8428,13680,-2420,31.82,-626,-254,-25,,
470,8488,13700,-2532,31.73,-807,-295,20,,
471,8396,13572,-2520,31.73,-365,-112,-38,,
472,8448,13596,-2472,31.73,-464,-371,-213,,
473,8392,13688,-2380,31.78,-440,-399,-192,,
474,8404,13692,-2408,31.64,-339,-397,-19,,
475,8480,13748,-2336,31.73,-455,-305,-322,,
476,8348,13736,-2460,31.73,-328,-231,-279,,
477,8392,13640,-2164,31.68,-365,-450,-147,,
478,8396,13624,-2268,31.68,-466,-494,-124,,
479,8316,13624,-2192,31.73,-518,-273,-252,,
480,8268,13684,-2388,31.73,-507,-146,-99,,
481,8476,13664,-2128,31.73,-539,-141,-83,,
482,8376,13580,-2396,31.73,-364,77,-118,,
483,8512,13680,-2208,31.82,-384,91,-134,,
484,8516,13708,-2416,31.64,-277,125,133,,
485,8572,13600,-2396,31.73,-277,52,-163,,
486,8588,13624,-2336,31.78,-215,-60,48,,
487,8620,13652,-2344,31.78,-320,-399,83,,
488,8384,13728,-2128,31.73,-466,-309,-95,,
489,8496,13684,-2360,31.78,-551,-312,-41,,
490,8500,13616,-2324,31.78,-397,-239,-221,,
491,8460,13692,-2380,31.87,-448,-196,-11,,
492,8604,13588,-2312,31.78,-369,-218,-151,,
493,8412,13572,-2236,31.73,-408,-240,-100,,
494,8508,13652,-2396,31.73,-497,-339,71,,
495,8320,13684,-2308,31.82,-519,-334,58,,
496,8380,13576,-2356,31.73,-299,-192,-72,,
497,8448,13532,-2308,31.82,-251,-234,-126,,
498,8440,13588,-2304,31.78,-267,-234,-150,,
499,8592,13704,-2424,31.87,-224,-163,-32,,
500,8428,13720,-2216,31.73,-227,-146,-106,,
501,8408,13600,-2180,31.82,-139,-297,-171,,
502,8520,13676,-2304,31.78,-376,-221,-149,,
503,8444,13636,-2416,31.78,-311,0,-229,,
504,8516,13620,-2108,31.78,-492,-30,-159,,
505,8508,13644,-2240,31.78,-462,-109,-189,,
506,8476,13724,-2448,31.68,-140,-173,119,,
507,8496,13600,-2200,31.73,68,-139,-268,,
508,8620,13680,-2248,31.78,-604,-576,-72,,
509,8488,13556,-2404,31.64,-381,-617,91,,
510,8388,13612,-2388,31.78,-380,-709,-166,,
511,8384,13548,-2456,31.73,-210,-710,-224,,
512,8368,13628,-2404,31.73,-121,-506,-136,,
513,8416,13600,-2544,31.78,-118,-45,-238,,
514,8368,13604,-2416,31.82,-129,272,-479,,
515,8520,13584,-2348,31.73,-24,527,-531,,
516,8440,13596,-2452,31.73,-129,543,-307,,
517,8444,13532,-2576,31.73,-269,648,-181,,
518,8368,13584,-2368,31.73,-403,474,-339,,
519,8540,13604,-2496,31.64,-165,380,-106,,
520,8464,13668,-2352,31.73,-580,-75,81,,
521,8444,13596,-2464,31.73,-252,-141,-40,,
522,8596,13728,-2296,31.73,-446,-322,-45,,
523,8400,13580,-2332,31.82,-579,-402,78,,
524,8436,13624,-2332,31.78,-534,-425,29,,
525,8584,13572,-2452,31.78,-557,-374,11,,
526,8524,13648,-2248,31.82,-624,-365,116,,
527,8600,13556,-2516,31.82,-655,-132,56,,
528,8600,13560,-2468,31.64,-514,-34,-106,,
529,8576,13624,-2456,31.82,-564,-151,1,,
530,8512,13440,-2388,31.82,-346,-157,-220,,
531,8704,13612,-2272,31.73,-416,-214,-53,,
532,8600,13524,-2160,31.73,-451,-410,-306,,
533,8640,13580,-2216,31.73,-428,-475,-284,,
534,8596,13568,-2128,31.78,-436,-674,-121,,
535,8420,13616,-2272,31.82,-423,-802,-153,,
536,8428,13560,-2208,31.82,-172,-737,-276,,
537,8488,13664,-2072,31.68,-661,-797,-487,,
538,8344,13868,-1728,31.78,-856,-723,-641,,
539,8448,13828,-2176,31.73,-1431,-731,-28,,
540,8324,13804,-2056,31.73,-1347,-362,-279,,
541,8288,13736,-2164,31.78,-747,160,-326,,
542,8392,13900,-1888,31.68,-898,-16,-502,,
543,8292,13896,-2088,31.78,-908,200,-53,,
544,8384,13880,-1888,31.78,-753,196,113,,
545,8380,13940,-1908,31.78,-382,-16,134,,
546,8260,13876,-1932,31.78,-337,-203,167,,
547,8496,13872,-1888,31.78,-213,-136,-95,,
548,8264,13876,-1944,31.78,-99,-102,-22,,
549,8336,13968,-1880,31.78,-191,-322,-164,,
550,8240,13888,-2104,31.82,173,-399,-202,,
551,8380,13864,-1996,31.73,-35,-294,-284,,
552,8372,13824,-1984,31.73,-34,-230,-236,,
553,8408,13848,-1916,31.64,-185,-228,-129,,
554,8224,13872,-1848,31.68,-251,-152,22,,
555,8268,13772,-1772,31.73,-331,-34,-127,,
556,8252,14012,-2020,31.73,-461,150,-26,,
557,8200,13812,-2020,31.73,-349,313,-328,,
558,8296,13880,-2080,31.82,-453,158,45,,
559,8156,13968,-2064,31.82,-269,-70,15,,
560,8184,13888,-2020,31.78,84,345,-620,,
561,8292,13824,-2044,31.64,54,384,-698,,
562,8404,13812,-2160,31.64,-76,21,-333,,
563,8212,13772,-2068,31.78,-259,-438,35,,
564,8352,13724,-2192,31.68,103,-294,-169,,
565,8432,13748,-2104,31.78,-152,-325,-534,,
566,8348,13732,-2552,31.82,-227,-691,381,,
567,8284,13836,-2264,31.82,-84,-837,173,,
568,8240,13684,-2352,31.82,72,-403,16,,
569,8232,13708,-2312,31.68,-39,-531,-22,,
570,8396,13676,-2492,31.87,-271,-488,74,,
571,8252,13632,-2500,31.82,-174,-708,182,,
572,8372,13764,-2584,31.73,-178,-497,314,,
573,8360,13576,-2644,31.78,-58,-347,167,,
574,8424,13596,-2464,31.82,-157,-224,66,,
575,8440,13568,-2648,31.82,-281,-120,184,,
576,8556,13448,-2452,31.73,-220,-55,174,,
577,8632,13688,-2160,31.82,-360,6,111,,
578,8580,13472,-2312,31.78,-643,107,-313,,
579,8628,13620,-2580,31.68,-926,-139,247,,
580,8524,13632,-2332,31.73,-1036,-338,809,,
581,8468,13564,-2648,31.82,-391,77,-42,,
582,8728,13612,-2480,31.82,-350,46,-155,,
583,8616,13568,-2504,31.92,-561,-165,4,,
584,8660,13564,-2492,31.78,-357,-141,53,,
585,8604,13548,-2332,31.78,-275,-176,-226,,
586,8748,13476,-2360,31.73,-210,-178,-130,,
587,8696,13540,-2376,31.78,-135,-299,-278,,
588,8688,13504,-2384,31.78,-166,-234,-331,,
589,8588,13484,-2396,31.82,-182,-203,-27,,
590,8736,13476,-2396,31.73,-458,-320,-120,,
591,8616,13524,-2508,31.68,-332,-78,-225,,
592,8600,13448,-2508,31.78,-441,-233,-112,,
593,8596,13508,-2440,31.73,-351,-173,-162,,
594,8508,13604,-2424,31.73,-532,-117,-122,,
595,8624,13484,-2432,31.78,-447,-143,-150,,
596,8648,13576,-2432,31.73,-438,-182,-103,,
597,8688,13680,-2332,31.82,-340,-221,-109,,
598,8592,13544,-2472,31.68,-382,-159,-55,,
599,8564,13608,-2200,31.82,-257,-171,-119,,
600,8560,13600,-2268,31.73,-218,-67,-118,,
601,8536,13520,-2416,31.78,-371,-92,-221,,
602,8580,13552,-2300,31.78,-170,13,-362,,
603,8660,13492,-2384,31.82,-358,-44,-263,,
604,8632,13512,-2612,31.78,-274,30,-398,,
605,8608,13552,-2408,31.82,-284,-56,-234,,
606,8724,13612,-2376,31.87,-386,-137,-169,,
607,8564,13532,-2476,31.78,-373,-56,-247,,
608,8656,13488,-2352,31.78,-396,-212,-169,,
609,8612,13568,-2340,31.73,-471,-382,31,,
610,8396,13600,-2408,31.82,-246,-247,-201,,
611,8656,13628,-2604,31.68,-281,-337,-22,,
612,8524,13556,-2372,31.87,-243,-338,-150,,
613,8772,13588,-2564,31.78,-116,-262,179,,
614,8576,13488,-2560,31.82,-60,-245,146,,
615,8540,13572,-2364,31.87,-246,-64,-131,,
616,8712,13512,-2520,31.82,-276,34,74,,
617,8656,13436,-2472,31.78,-350,-38,13,,
618,8608,13472,-2388,31.73,-514,5,-130,,
619,8628,13540,-2496,31.82,-337,-47,-72,,
620,8664,13568,-2304,31.68,-557,-118,-161,,
621,8628,13524,-2540,31.82,-363,-67,-78,,
622,8500,13604,-2400,31.73,-169,-157,-304,,
623,8660,13528,-2380,31.73,1316,973,-99,,
624,8664,13268,-2640,31.82,589,222,-656,,
625,8588,13404,-2412,31.82,-638,-342,-245,,
626,8672,13472,-2560,31.87,-594,-482,-88,,
627,8660,13532,-2536,31.68,-931,-408,-121,,
628,8596,13472,-2468,31.73,-807,-438,-123,,
629,8700,13636,-2524,31.73,-854,-394,25,,
630,8608,13584,-2608,31.82,-409,-37,-161,,
631,8664,13536,-2328,31.78,-517,-104,-9,,
632,8596,13500,-2216,31.82,-535,-123,-9,,
633,8520,13448,-2380,31.73,-398,-84,-40,,
634,8540,13492,-2464,31.82,-323,-138,-34,,
635,8728,13564,-2536,31.78,-279,-204,-95,,
636,8748,13532,-2492,31.78,194,29,-95,,
637,8844,13420,-2336,31.73,281,-151,-227,,
638,8756,13312,-2524,31.82,-297,-263,-194,,
639,8736,13432,-2636,31.78,-46,-339,-165,,
640,8684,13368,-2332,31.78,-213,-473,-105,,
641,8584,13504,-2744,31.82,-365,-290,-78,,
642,8676,13276,-2756,31.73,-275,-196,-81,,
643,8688,13360,-2588,31.82,-568,-368,-1,,
644,8680,13464,-2404,31.82,-674,-164,-90,,
645,8724,13520,-2576,31.82,-557,-126,-127,,
646,8568,13524,-2588,31.87,-428,-156,-168,,
647,8696,13436,-2588,31.82,-486,-240,-46,,
648,8632,13480,-2556,31.82,-558,-269,-103,,
649,8640,13452,-2628,31.78,-360,-259,-120,,
650,8692,13512,-2468,31.78,-492,-274,-94,,
651,8672,13444,-2456,31.82,-402,-319,-49,,
652,8584,13492,-2508,31.73,-417,-298,-40,,
653,8656,13404,-2276,31.82,-432,-262,-133,,
654,8620,13448,-2304,31.73,-414,-164,-68,,
655,8660,13448,-2496,31.78,-234,44,-143,,
656,8640,13476,-2400,31.78,-323,-137,-177,,
657,8572,13504,-2396,31.87,-497,-302,-121,,
658,8636,13476,-2472,31.82,-321,-135,-206,,
659,8744,13472,-2412,31.78,-325,-194,-156,,
660,8664,13560,-2396,31.87,-349,-264,-207,,
661,8724,13532,-2652,31.82,-362,-331,-65,,
662,8620,13512,-2528,31.82,-291,-333,-26,,
663,8668,13500,-2472,31.73,-513,-372,1,,
664,8672,13516,-2536,31.73,-347,-221,-47,,
665,8696,13468,-2444,31.82,-462,-381,-27,,
666,8640,13468,-2620,31.73,-504,-151,-178,,
667,8684,13488,-2544,31.87,-162,-52,-327,,
668,8700,13496,-2396,31.73,-327,-188,-146,,
669,8636,13592,-2448,31.73,-334,-216,-88,,
670,8604,13428,-2632,31.87,-394,-233,-96,,
671,8556,13512,-2712,31.78,-177,-197,-167,,
672,8760,13444,-2352,31.82,-204,-354,-139,,
673,8620,13368,-2756,31.82,-294,-409,152,,
674,8656,13420,-2636,31.73,-323,-287,-106,,
675,8760,13392,-2584,31.78,-319,-262,-84,,
676,8640,13476,-2624,31.78,-491,-305,-43,,
677,8560,13528,-2512,31.87,-440,-223,-43,,
678,8676,13368,-2752,31.68,-282,-88,-115,,
679,8668,13436,-2432,31.82,-319,-112,-218,,
680,8664,13428,-2512,31.82,-361,-159,-94,,
681,8632,13484,-2552,31.82,-386,-62,-205,,
682,8652,13504,-2580,31.78,-372,-96,-227,,
683,8796,13404,-2476,31.68,-488,-208,-79,,
684,8760,13480,-2564,31.87,-356,-188,95,,
685,8628,13544,-2560,31.87,-373,-243,-124,,
686,8784,13460,-2508,31.78,-330,-171,-30,,
687,8740,13400,-2576,31.82,-446,-281,87,,
688,8696,13400,-2584,31.78,-339,-101,-158,,
689,8704,13416,-2424,31.82,-416,-128,-115,,
690,8812,13424,-2576,31.82,-368,-120,-162,,
691,8720,13484,-2620,31.87,-365,-151,-99,,
692,8728,13496,-2384,31.78,-430,-148,-53,,
693,8684,13388,-2356,31.82,-368,-226,-148,,
694,8716,13456,-2480,31.82,-467,-211,-98,,
695,8728,13432,-2608,31.87,-420,-307,25,,
696,8724,13428,-2600,31.82,-521,-284,-91,,
697,8832,13452,-2520,31.78,-345,-246,-191,,
698,8816,13448,-2580,31.87,-481,-372,-49,,
699,8680,13404,-2420,31.68,-419,-261,-142,,
700,8708,13424,-2488,31.82,-357,-174,-166,,
701,8768,13464,-2460,31.87,-332,-217,-192,,
702,8848,13416,-2520,31.87,-386,-243,-124,,
703,8788,13348,-2524,31.82,-377,-192,-123,,
704,8772,13424,-2512,31.78,-383,-181,-225,,
705,8808,13472,-2420,31.78,-445,-294,-152,,
706,8780,13388,-2520,31.82,-286,-173,-77,,
707,8868,13492,-2452,31.73,-474,-192,14,,
708,8640,13424,-2492,31.92,-349,-143,-133,,
709,8704,13476,-2368,31.82,-345,-69,-27,,
710,8752,13340,-2580,31.82,-421,-139,-118,,
711,8644,13512,-2320,31.82,-322,-197,-109,,
712,8828,13436,-2468,31.78,-292,-169,-128,,
713,8804,13432,-2488,31.73,-363,-251,-98,,
714,8836,13440,-2472,31.82,-275,-254,-40,,
715,8804,13404,-2316,31.78,-287,-339,-206,,
716,8852,13484,-2560,31.87,-525,-460,91,,
717,8644,13420,-2524,31.87,-388,-358,-71,,
718,8820,13464,-2472,31.87,-268,-252,-88,,
719,8788,13436,-2444,31.82,-353,-247,-119,,
720,8708,13540,-2452,31.82,-315,-126,-184,,
721,8748,13436,-2508,31.78,-324,-26,-214,,
722,8676,13460,-2488,31.87,-339,-123,-206,,
723,8804,13428,-2480,31.82,-443,-136,-135,,
724,8824,13468,-2352,31.78,-387,-178,-147,,
725,8740,13432,-2560,31.87,-415,-165,-139,,
726,8792,13484,-2416,31.82,-402,-222,-106,,
727,8756,13536,-2308,31.82,-483,-338,116,,
728,8668,13388,-2524,31.78,-352,-255,-84,,
729,8780,13428,-2548,31.78,-272,-133,-143,,
730,8652,13308,-2544,31.73,-415,-257,-39,,
731,8680,13476,-2540,31.73,-298,-126,-194,,
732,8752,13424,-2480,31.78,-363,-151,-158,,
733,8724,13412,-2376,31.82,-333,-184,-194,,
734,8752,13416,-2364,31.82,-356,-208,-92,,
735,8736,13440,-2476,31.78,-342,-196,-147,,
736,8760,13364,-2628,31.78,-372,-211,-118,,
737,8712,13464,-2324,31.82,-390,-209,-114,,
738,8820,13480,-2332,31.82,-462,-323,-62,,
739,8760,13352,-2464,31.82,-366,-195,-108,,
740,8756,13336,-2220,31.87,-343,-141,-119,,
741,8740,13512,-2528,31.73,-427,-192,-68,,
742,8824,13368,-2488,31.82,-286,-52,-165,,
743,8804,13400,-2504,31.82,-369,-160,-134,,
744,8704,13516,-2524,31.64,-424,-204,-177,,
745,8672,13408,-2416,31.87,-403,-219,-6,,
746,8760,13400,-2484,31.82,-349,-147,-188,,
747,8728,13320,-2448,31.78,-406,-196,-87,,
748,8720,13504,-2340,31.82,-382,-178,-179,,
749,8780,13476,-2524,31.92,-520,-295,9,,
750,8728,13428,-2520,31.82,-373,-194,-103,,
751,8704,13460,-2448,31.92,-403,-145,-162,,
752,8748,13424,-2380,31.87,-379,-169,-135,,
753,8796,13460,-2436,31.82,-441,-76,-220,,
754,8812,13440,-2480,32.01,-351,-104,-252,,
755,8736,13460,-2292,31.82,-621,-271,-41,,
756,8780,13480,-2496,31.78,-371,-142,-165,,
757,8656,13504,-2332,31.87,-294,-250,-197,,
758,8684,13488,-2360,31.73,-475,-309,-78,,
759,8756,13436,-2264,31.82,-308,-260,-123,,
760,8836,13564,-2248,31.87,-503,-264,-107,,
761,8752,13448,-2456,31.87,-376,-292,-163,,
762,8864,13460,-2376,31.82,-312,-237,-44,,
763,8728,13472,-2520,32.01,-367,-325,-55,,
764,8724,13444,-2404,31.92,-320,-215,-91,,
765,8728,13512,-2448,31.82,-342,-175,-149,,
766,8756,13420,-2464,31.87,-309,-192,-145,,
767,8732,13476,-2352,31.82,-366,-167,-148,,
768,8684,13480,-2432,31.82,-326,-127,-181,,
769,8704,13404,-2316,31.87,-254,-159,-199,,
770,8748,13432,-2360,31.82,-359,-253,-204,,
771,8652,13560,-2492,31.87,-235,-169,-109,,
772,8656,13404,-2384,31.78,-320,-125,-194,,
773,8804,13480,-2496,31.92,-68,168,-225,,
774,8560,13456,-2220,31.82,-142,190,-228,,
775,8608,13524,-2484,31.92,-259,-149,-193,,
776,8740,13448,-2388,31.87,-383,-211,-122,,
777,8716,13468,-2356,31.87,-406,-42,-152,,
778,8708,13424,-2464,31.82,-450,-63,-168,,
779,8684,13516,-2288,31.82,-426,-112,-106,,
780,8740,13476,-2444,31.73,-418,-102,-159,,
781,8740,13444,-2388,31.78,-446,-137,-56,,
782,8660,13420,-2480,31.82,-277,-129,-3,,
783,8696,13504,-2136,31.87,-465,-185,-68,,
784,8700,13428,-2400,31.82,-353,-247,27,,
785,8776,13556,-2364,31.82,-408,-233,-94,,
786,8792,13536,-2444,31.82,-325,-199,-175,,
787,8748,13480,-2520,31.87,-331,-267,-199,,
788,8728,13504,-2236,31.82,-382,-299,-215,,
789,8564,13476,-2348,31.82,-413,-330,-198,,
790,8680,13464,-2432,31.87,-456,-231,-200,,
791,8600,13532,-2484,31.82,-264,-271,-149,,
792,8680,13620,-2380,31.82,-391,-250,-177,,
793,8624,13492,-2472,31.78,-299,-128,-269,,
794,8676,13572,-2404,31.82,-382,-187,-101,,
795,8716,13516,-2452,31.82,-318,-212,-84,,
796,8588,13536,-2272,31.92,-263,-110,-160,,
797,8588,13456,-2620,31.78,-324,-181,-156,,
798,8688,13464,-2492,31.82,-322,-214,-74,,
799,8636,13504,-2428,31.82,-354,-120,-68,,
800,8708,13460,-2424,31.87,-407,-183,-47,,
801,8588,13476,-2264,31.78,-457,-262,-7,,
802,8676,13456,-2224,31.87,-326,-209,-19,,
803,8680,13472,-2344,31.87,-440,-171,26,,
804,8644,13500,-2232,31.97,-486,-192,18,,
805,8624,13500,-2444,31.78,-410,-150,25,,
806,8800,13468,-2500,31.78,-428,-171,-64,,
807,8852,13396,-2284,31.87,-425,-94,-39,,
808,8676,13400,-2360,31.87,-425,-131,-154,,
809,8792,13408,-2364,31.82,-421,-118,-57,,
810,8772,13404,-2312,31.82,-402,-183,-63,,
811,8728,13468,-2252,31.82,-412,-124,-71,,
812,8700,13416,-2252,31.87,-370,-120,-196,,
813,8824,13496,-2292,31.78,-549,-273,-59,,
814,8740,13408,-2116,31.78,-439,-243,-111,,
815,8800,13568,-2224,31.92,-457,-198,-134,,
816,8688,13520,-2232,31.78,-350,-225,-153,,
817,8776,13508,-2328,31.87,-447,-139,-165,,
818,8728,13388,-2252,31.73,-424,-135,-191,,
819,8796,13480,-2144,31.82,-384,-173,-190,,
820,8712,13472,-2128,31.82,-355,-218,-154,,
821,8708,13504,-2192,31.82,-443,-287,-103,,
822,8728,13500,-2096,31.87,-456,-262,-177,,
823,8788,13572,-2152,31.82,-612,-381,-118,,
824,8620,13628,-2204,31.92,-474,-375,-231,,
825,8708,13516,-2192,31.78,-563,-420,-65,,
826,8660,13536,-2072,31.87,-530,-471,-224,,
827,8784,13556,-2080,31.82,-596,-500,-221,,
828,8696,13624,-1896,31.82,-843,-686,-29,,
829,8668,13596,-2076,31.97,-855,-770,-7,,
830,8712,13556,-1960,31.87,-969,-773,-65,,
831,8556,13572,-1936,31.78,-1083,-932,-22,,
832,8660,13612,-2156,31.78,-949,-833,-106,,
833,8628,13684,-2088,31.82,-838,-797,-181,,
834,8496,13700,-2084,31.82,-588,-743,-27,,
835,8588,13776,-2064,31.87,-564,-661,-7,,
836,8544,13740,-2236,31.87,-393,-433,-237,,
837,8532,13616,-2076,31.82,-289,-273,-338,,
838,8544,13748,-2132,31.87,-288,-235,-50,,
839,8596,13648,-2128,31.97,-177,-48,-191,,
840,8564,13560,-2168,31.87,-23,76,-251,,
841,8540,13688,-2116,31.87,153,142,-308,,
842,8648,13644,-2340,31.87,-16,122,-129,,
843,8624,13600,-2112,31.87,-18,39,101,,
844,8544,13632,-2248,31.82,66,227,-140,,
845,8680,13504,-2356,31.78,-110,130,-201,,
846,8624,13628,-2188,31.87,-90,-31,16,,
847,8520,13628,-2368,31.82,-240,-126,56,,
848,8552,13628,-2184,31.82,-164,-90,-48,,
849,8624,13656,-2504,31.92,-174,-35,-216,,
850,8532,13572,-2304,31.92,-263,16,-160,,
851,8556,13512,-2464,31.82,-193,-45,-110,,
852,8504,13628,-2268,31.82,-144,-8,-69,,
853,8492,13520,-2280,31.82,-301,148,-75,,
854,8556,13512,-2452,31.82,-47,321,-175,,
855,8696,13544,-2296,31.87,-169,298,-261,,
856,8628,13516,-2404,31.82,-169,204,-105,,
857,8724,13476,-2268,31.92,-207,142,-101,,
858,8648,13596,-2172,31.92,-190,362,-153,,
859,8596,13456,-2264,31.92,-174,367,-170,,
860,8760,13456,-2180,31.82,-225,300,-137,,
861,8868,13552,-2112,31.78,-236,338,-77,,
862,8672,13584,-2264,31.82,-317,357,-24,,
863,8668,13512,-2048,31.92,-232,254,-10,,
864,8736,13496,-2128,31.82,-165,363,-132,,
865,8756,13444,-2176,31.87,-270,233,-213,,
866,8796,13520,-2096,31.78,-326,129,-108,,
867,8884,13548,-1988,31.92,-382,-1,-193,,
868,8900,13508,-2000,31.87,-388,19,-155,,
869,8912,13532,-1948,31.78,-431,-151,-130,,
870,8856,13532,-2044,31.92,-489,-108,18,,
871,8840,13560,-1908,31.82,-458,-42,-17,,
872,9024,13576,-2208,31.92,-281,194,-170,,
873,8904,13436,-1860,31.82,-330,266,-186,,
874,8944,13464,-1916,31.82,-296,388,-306,,
875,8976,13608,-1992,31.87,-264,599,-176,,
876,8940,13552,-1804,31.78,-252,603,-511,,
877,8904,13620,-2056,31.87,-169,681,-387,,
878,8944,13536,-1752,31.82,-199,521,-524,,
879,8932,13652,-1768,31.82,-336,279,-422,,
880,8924,13588,-1564,31.87,-131,211,-469,,
881,8928,13568,-1680,31.87,-356,1,-220,,
882,8976,13688,-1848,31.82,-439,-100,-144,,
883,8884,13708,-1656,31.97,-487,-251,-182,,
884,8708,13724,-1896,31.82,-257,-242,120,,
885,8880,13616,-1808,31.82,-112,-382,666,,
886,8836,13556,-1704,31.92,-647,-906,811,,
887,8780,13568,-1932,31.82,-661,-822,76,,
888,8832,13560,-1804,31.82,-352,-599,-185,,
889,8728,13256,-1388,31.87,-1205,-1259,-270,,
890,9032,13928,-1724,31.82,-1230,-1025,661,,
891,8856,13556,-2364,31.87,-248,-628,1190,,
892,8860,13296,-2044,31.92,-261,-458,771,,
893,9000,13472,-1704,31.92,-309,-563,-193,,
894,9184,13436,-1864,31.82,402,-67,-747,,
895,9044,13224,-1376,31.82,1,-1208,-1718,,
896,9364,13320,-1444,31.87,-2254,-2165,261,,
897,8780,13296,-2336,31.82,-1909,-1469,355,,
898,8756,13732,-2040,31.87,-1391,-873,27,,
899,8692,13916,-1856,31.97,-285,-676,103,,
900,8788,13440,-1952,31.82,59,-726,90,,
901,8728,13580,-1704,31.87,69,-387,-252,,
902,8804,13560,-1628,31.87,68,28,-54,,
903,8956,13484,-1996,31.87,-49,-251,-19,,
904,8928,13444,-2048,31.87,-243,-889,-181,,
905,8944,13368,-1744,31.82,-385,-842,-122,,
906,8872,13516,-1936,31.92,-271,-329,3,,
907,8904,13552,-1984,31.82,-405,-184,-78,,
908,8912,13760,-1868,31.92,-191,9,9,,
909,8888,13548,-2468,31.82,508,476,-404,,
910,8964,13500,-2292,31.82,351,-68,-450,,
911,8856,13228,-1892,32.01,-551,-937,-435,,
912,8732,13428,-1696,31.92,-60,112,-266,,
913,8856,13352,-1716,31.92,-301,551,-100,,
914,8804˛                                                                       ,,,,,,,,
915,14536,11980,-3516,31.97,-2340,-11220,79,,
916,14160,9748,-1560,31.87,-657,-6986,2656,,
917,12524,10688,-5744,31.87,248,-2339,3289,,
918,13012,11088,-4020,31.82,7849,10893,3025,,
919,12620,9176,-6504,32.01,-2745,-8671,3138,,
920,13124,7212,-3396,31.97,-198,-10951,2775,,
921,13960,7520,-4904,31.87,-4303,-15572,3994,,
922,10508,10224,-6180,31.82,-1657,-8730,3581,,
923,9492,11512,-7248,31.92,-245,-13294,-4228,,
924,8556,10524,-8136,31.78,604,-5922,-2171,,
925,8276,11780,-8472,31.87,-1207,-10134,-2687,,
926,6672,12960,-10092,31.87,-6049,-7221,5943,,
927,6196,8640,-10352,31.87,415,-11073,2401,,
928,5112,8484,-11664,31.97,-1769,-8126,969,,
929,4488,7192,-10760,31.82,895,-2221,-1626,,
930,3240,8328,-12384,31.92,2609,-1442,-3811,,
931,4660,10028,-9760,31.97,1887,-8625,-2650,,
932,692,9348,-10564,31.92,1393,-8198,-4426,,
933,-2604,8864,-11648,31.87,1050,-10102,802,,
934,1420,8904,-10900,31.92,265,-10321,-978,,
935,-32,7600,-13260,31.92,2040,-6554,-2508,,
936,-656,3840,-14168,31.87,-429,-5769,-696,,
937,-2116,7516,-12452,31.92,1890,-3205,-1525,,
938,-3300,6708,-11640,31.97,1140,1621,-1235,,
939,-2224,6816,-12488,31.92,4354,5606,-2304,,
940,-1936,7252,-13520,31.87,640,2804,-993,,
941,-900,7348,-12896,31.97,-1883,5041,-2707,,
942,-164,6680,-12516,31.92,-932,2359,-2079,,
943,-872,6848,-12984,31.87,1076,4584,-2340,,
944,-740,6456,-12768,31.97,2269,4661,-1813,,
945,-484,6180,-13120,31.92,1511,1845,-2225,,
946,692,6136,-13476,31.82,150,379,-749,,
947,488,6116,-13292,31.97,153,485,-777,,
948,428,6212,-13496,31.92,66,612,-761,,
949,632,6256,-13304,31.92,-61,834,-261,,
950,632,6516,-13468,31.92,20,650,-214,,
951,704,6420,-13392,31.92,-12,255,-312,,
952,580,6272,-13276,31.97,-196,54,-138,,
953,896,6256,-13560,31.92,160,344,-161,,
954,848,6064,-13292,31.92,219,717,-212,,
955,856,6264,-13484,31.87,243,476,-126,,
956,928,5756,-13408,31.92,399,943,-224,,
957,1052,5764,-13600,31.82,385,1298,-163,,
958,1360,5904,-13480,32.01,-198,107,-37,,
959,1192,5920,-13620,31.92,-197,-229,10,,
960,1440,5828,-13440,31.87,-157,255,-43,,
961,1456,5884,-13668,31.87,-199,-938,45,,
962,1256,5848,-13260,31.82,-9,-311,-206,,
963,1308,5676,-13600,31.92,-33,325,-123,,
964,1272,5532,-13904,31.97,-231,-1087,252,,
965,1052,5724,-13276,31.87,-762,-679,150,,
966,1272,6080,-13528,31.97,-14,-53,-91,,
967,1000,5624,-13576,31.92,-169,-242,-88,,
968,924,5772,-13492,31.82,-409,-72,-56,,
969,1200,5660,-13588,31.87,-127,193,-75,,
970,1216,5516,-13620,31.92,-349,-87,-89,,
971,1288,5808,-13532,31.92,-337,-131,-7,,
972,1288,5688,-13688,31.87,-181,-16,-132,,
973,1096,5572,-13756,31.78,-317,-306,-79,,
974,1048,5632,-13808,31.92,-233,-347,43,,
975,1216,5452,-13420,31.92,-103,1,-74,,
976,1188,5636,-13600,31.87,6,681,-238,,
977,1356,5568,-13696,31.87,7,644,-254,,
978,1336,5576,-13796,31.92,-785,235,-79,,
979,1532,5660,-13648,32.01,-931,-515,66,,
980,1396,5680,-13756,31.87,-498,-219,104,,
981,1356,5788,-13452,31.97,-678,-910,133,,
982,1280,5772,-13648,31.92,-167,-49,-96,,
983,1416,5760,-13840,32.01,-17,159,-88,,
984,1328,5640,-13744,31.92,-450,-616,-78,,
985,1028,5484,-13644,31.82,-786,-853,102,,
986,1276,5676,-13524,31.92,-551,-370,23,,
987,1200,6020,-13692,31.92,-633,-482,-95,,
988,1096,5816,-13452,31.92,-503,-354,-152,,
989,1092,5800,-13512,31.92,-303,-126,-241,,
990,1136,5820,-13612,31.82,-241,233,-178,,
991,1280,5748,-13624,31.92,-195,336,-267,,
992,1468,5596,-13640,31.92,-196,329,-245,,
993,1532,5656,-13680,31.92,-62,114,-253,,
994,1388,5648,-13624,31.87,-224,-100,-109,,
995,1272,5620,-13724,31.87,-270,-222,-81,,
996,1352,5608,-13524,31.78,-309,-161,-92,,
997,1396,5648,-13560,31.97,-307,-48,-184,,
998,1440,5588,-13576,31.87,-218,127,-142,,
999,1344,5724,-13580,31.97,-236,-34,-156,,
1000,1464,5604,-13640,31.87,-322,-141,-122,,
1001,1484,5632,-13812,31.87,-207,11,-108,,
1002,1504,5564,-13576,32.01,-282,-173,-95,,
1003,1456,5676,-13680,31.92,-283,-172,-90,,
1004,1420,5620,-13696,31.92,-286,-130,-55,,
1005,1404,5600,-13608,31.92,-317,-200,-78,,
1006,1456,5484,-13624,31.92,-356,-120,-115,,
1007,1368,5492,-13488,31.92,-350,-167,-20,,
1008,1400,5580,-13604,31.92,-274,-35,-109,,
1009,1428,5492,-13720,31.92,-354,-113,-88,,
1010,1472,5588,-13976,31.92,-248,-42,-51,,
1011,1644,5716,-13584,31.87,-338,-370,-120,,
1012,1504,5540,-13548,31.87,-197,-117,-110,,
1013,1564,5332,-13752,31.82,-330,-75,-156,,
1014,1356,6032,-13728,31.97,-424,-376,61,,
1015,1424,5684,-14128,31.97,-893,-981,44,,
1016,1472,5952,-13408,31.97,-477,-614,15,,
1017,1368,5640,-13696,31.97,-144,-44,-213,,
1018,1172,5360,-13528,31.87,-427,-550,-43,,
1019,1288,5584,-13572,31.97,-260,117,-84,,
1020,1296,5764,-13648,31.97,-281,74,-102,,
1021,1476,5788,-13552,31.87,-261,-99,-155,,
1022,1336,5644,-13664,31.87,-178,-124,-163,,
1023,1264,5372,-13532,31.97,-289,-224,-90,,
1024,1396,5608,-13568,31.82,-400,-134,-40,,
1025,1428,5600,-13504,31.82,-380,-120,-93,,
1026,1476,5556,-13688,31.82,-294,-90,-123,,
1027,1416,5652,-13488,31.97,-361,-307,-22,,
1028,1380,5564,-13688,31.87,-279,-143,-88,,
1029,1396,5644,-13728,31.87,-359,-253,-6,,
1030,1376,5512,-13640,31.87,-371,-210,-75,,
1031,1392,5624,-13660,31.87,-295,-145,-76,,
1032,1448,5580,-13616,31.92,-356,-283,-36,,
1033,1368,5612,-13752,31.82,-309,-177,-42,,
1034,1484,5520,-13668,31.92,-335,-129,-96,,
1035,1400,5604,-13740,31.92,-337,-151,-43,,
1036,1296,5624,-13864,31.92,-339,-156,-83,,
1037,1284,5596,-13648,31.87,-301,-152,-68,,
1038,1340,5548,-13792,31.87,-357,-268,-77,,
1039,1344,5512,-13704,31.82,-361,-290,-117,,
1040,1400,5640,-13652,31.97,-373,-271,-40,,
1041,1404,5424,-13628,31.87,-367,-300,-40,,
1042,1376,5636,-13548,31.87,-346,-405,-36,,
1043,1324,5612,-13800,31.97,-255,-206,-112,,
1044,1172,5568,-13656,31.92,-295,-82,-114,,
1045,1264,5676,-13740,31.92,-236,-84,-92,,
1046,1332,5616,-13740,31.82,-299,-123,-71,,
1047,1248,5656,-13732,31.87,-287,-130,-72,,
1048,1376,5548,-13708,31.87,-315,-162,-96,,
1049,1240,5536,-13588,31.87,-338,-179,-57,,
1050,1384,5548,-13660,31.82,-347,-190,-68,,
1051,1288,5592,-13608,31.92,-344,-133,-107,,
1052,1388,5616,-13732,31.97,-344,-220,-63,,
1053,1300,5528,-13784,31.87,-373,-197,-70,,
1054,1300,5576,-13812,31.97,-311,-177,-68,,
1055,1256,5560,-13732,31.87,-333,-219,-67,,
1056,1240,5484,-13720,31.92,-392,-209,-56,,
1057,1248,5580,-13652,31.82,-314,-152,-90,,
1058,1272,5596,-13748,32.01,-364,-236,-48,,
1059,1320,5592,-13716,31.92,-326,-127,-87,,
1060,1292,5548,-13604,31.92,-341,-207,-73,,
1061,1376,5616,-13692,31.92,-367,-206,-76,,
1062,1376,5488,-13672,31.87,-316,-114,-83,,
1063,1280,5588,-13820,31.87,-393,-193,-89,,
1064,1348,5612,-13800,31.82,-324,-180,-67,,
1065,1408,5516,-13800,32.01,-377,-131,-77,,
1066,1204,5632,-13576,31.82,-319,-170,-97,,
1067,1352,5560,-13680,31.92,-344,-244,-57,,
1068,1260,5552,-13632,31.97,-332,-152,-84,,
1069,1324,5544,-13712,31.97,-342,-148,-108,,
1070,1420,5428,-13564,31.92,-353,-207,-68,,
1071,1360,5528,-13688,31.92,-314,-133,-59,,
1072,1308,5508,-13660,31.92,-364,-135,-86,,
1073,1388,5452,-13700,31.87,-345,-228,-94,,
1074,1300,5632,-13708,31.97,-342,-104,-99,,
1075,1332,5476,-13644,31.97,-334,-135,-104,,
1076,1364,5572,-13660,32.01,-335,-201,,,
Sample,aX,aY,az,Temp,gX,gY,gz                                                   ,,
1,10280,4996,-9620,31.68,-1104,3947,-1600,,
2,12184,3936,-9548,31.68,-1610,467,-256,,
3,11684,5104,-9288,31.68,-2393,2224,141,,
4,11352,6292,-9472,31.73,-3383,1738,441,,
5,12344,5308,-7576,31.64,249,7529,-156,,
6,12332,5728,-7184,31.64,-864,7326,1094,,
7,Ò                                                                             ,,,,,,,,