,-184864,-4192,30.74,-2214,996,-62,,
615,2556,15100,15216,-4548,30.79,-2827,626,-1603
614,2440,14864,-4192,30.74,-2214,996,-62,
615,2556,1510,,,,,,
Sample,aX,aY,az,Temp,gX,gY,gz                                                   ,
1,2900,15244,-3740,30.69,-343,-236,-183,
2,2880,15180,-3752,30.84,-386,-176,-71,
3,2840,15196,-3772,30.79,-295,-202,-149,
4,2916,15084,-3848,30.84,-250,-83,-168,
5,2864,15128,-3848,30.79,-365,-137,-289,
6,2832,15140,-3832,30.84,-155,-73,-105,
7,3092,15892,-4040,30.79,556,-189,-98,
8,2644,14540,-3984,30.74,1589,1649,1683,
9,3468,15116,-4332,30.79,2565,1829,1252,
10,3036,14284,-4160,30.84,3696,1559,2615,
11,4164,14360,-5320,30.84,6455,1021,1981,
12,4668,13376,-6044,30.84,5684,381,2709,
13,4712,13940,-7556,30.79,3441,-721,1492,
14,360,12240,-2500,30.79,4001,1068,3710,
15,4864,12244,-6940,30.84,4274,-873,2951,
16,7424,11976,-6960,30.84,2748,-4290,2522,
17,7748,10376,-7360,30.84,1072,-2568,-316,
18,5516,11952,-9604,30.84,-2431,-2574,-2162,
19,3872,12048,-7636,30.79,-2646,-843,-453,
20,4380,12604,-7444,30.88,124,-827,-411,
21,4568,12144,-8628,30.74,1177,-1540,-946,
22,3732,12236,-8380,30.74,786,1,-72,
23,4228,12156,-8596,30.84,-660,-153,-486,
24,4240,12444,-8464,30.79,-350,-919,-444,
25,4352,12044,-8156,30.79,-427,-830,-595,
26,4288,12140,-8576,30.79,-1168,-705,-785,
27,4332,12464,-8224,30.79,-73,245,-780,
28,3888,12376,-8628,30.84,-249,628,-455,
29,3940,12376,-8444,30.79,-783,109,-124,
30,3916,12432,-7920,30.79,-564,81,-227,
31,4076,12296,-8180,30.79,-309,-424,-259,
32,4044,12448,-8332,30.79,-280,-253,-16,
33,4124,12284,-8472,30.74,-227,-232,-268,
34,4080,12324,-8184,30.84,-643,-207,-214,
35,3976,12384,-8168,30.84,-658,-419,-241,
36,3896,12584,-8488,30.79,-710,-506,-289,
37,4052,12408,-8208,30.88,-754,-513,-131,
38,3980,12588,-8396,30.88,-1109,-751,-230,
39,3896,12380,-7992,30.79,-1289,-238,-368,
40,3880,12684,-8392,30.79,-795,-62,-845,
41,3896,12624,-8076,30.74,794,1749,-1251,
42,3788,12600,#NAME?,,,,,
Sample,aX,aY,az,Temp,gX,gY,gz                                                   ,
1,3664,12360,-8416,30.84,-363,-173,-144,
2,3628,12444,-8372,30.88,-315,-170,-189,
3,3752,12460,-8452,30.74,-368,-200,-113,
4,3732,12364,-8348,30.79,-358,-250,-195,
5,3772,12432,-8440,30.88,-470,-174,-145,
6,3656,12376,-8424,30.74,-501,-262,-189,
7,3712,12352,-8308,30.84,-372,-231,-210,
8,3632,12396,-8240,30.79,-391,-234,-146,
9,3608,12416,-8336,30.88,-395,-211,-232,
10,3552,12408,-8348,30.74,-337,-174,-146,
11,3660,12468,-8388,30.88,-333,-178,-213,
12,3560,12480,-8240,30.69,-380,-168,-155,
13,3712,12440,-8420,30.69,-388,-168,-193,
14,3652,12460,-8492,30.79,-372,-221,-218,
15,3684,12496,-8364,30.79,-435,-203,-139,
16,3648,12476,-8180,30.79,-370,-189,-207,
17,3700,12468,-8384,30.88,-392,-196,-123,
18,3624,12424,-8364,30.79,-326,-184,-122,
19,3724,12452,-8376,30.84,-470,-200,-180,
20,3720,12488,-8236,30.74,-461,-139,-294,
21,3680,12476,-8188,30.74,-342,-155,-70,
22,3748,12512,-8220,30.74,-337,-159,-140,
23,3644,12500,-8304,30.88,-382,-143,-158,
24,3680,12460,-8380,30.88,-447,-176,-246,
25,3692,12412,-8392,30.84,-369,-106,-134,
26,3696,12536,-8460,30.93,-383,-193,-198,
27,3680,12440,-8388,30.84,-235,-240,22,
28,3696,12464,-8276,30.88,-331,-276,-174,
29,3664,12508,-8320,30.84,-347,-185,-212,
30,3728,12508,-8408,30.84,-351,-147,-232,
31,3528,12672,-8348,30.74,-358,-57,-75,
32,3728,12472,-8300,30.88,-365,-220,-106,
33,3712,12564,-8388,30.84,-359,-316,-183,
34,3580,12460,-8204,30.84,-304,-266,-118,
35,3716,12296,-8312,30.88,-420,-155,-330,
36,3572,12516,-8284,30.88,-447,-76,-250,
37,3568,12472,-8424,30.88,-389,-173,-112,
38,3696,12516,-8376,30.79,-332,-232,-123,
39,3704,12444,-8200,30.84,-412,-292,-183,
40,3644,12456,-8336,30.84,-316,-208,-129,
41,3624,12524,-8424,30.84,-365,-181,-183,
42,3656,12568,-8192,30.88,-427,-197,-240,
43,3636,12516,-8408,30.79,-450,-198,-144,
44,3548,12456,-8316,30.79,-310,-202,-83,
45,3708,12456,-8288,30.84,-287,-296,-114,
46,3612,12436,-8336,30.84,-360,-216,-110,
47,3676,12468,-8376,30.79,-347,-181,-182,
48,3644,12556,-8392,30.88,-428,-163,-186,
49,3588,12416,-8272,30.79,-335,-219,-175,
50,3532,12464,-8208,30.84,-412,-285,-135,
51,3624,12480,-8236,30.84,-325,-222,-36,
52,3552,12424,-8228,30.74,-278,-178,-100,
53,3692,12564,-8272,30.88,-298,-241,-226,
54,3528,12384,-8252,30.79,-428,-201,-180,
55,3564,12444,-8352,30.88,-409,-61,-233,
56,3604,12520,-8268,30.84,-346,-254,-201,
57,3632,12556,-8204,30.84,-281,-227,-87,
58,3512,12484,-8300,30.88,-411,-173,-115,
59,3676,12556,-8324,30.79,-399,-155,-125,
60,3532,12476,-8316,30.79,-363,-178,-253,
61,3724,12328,-8392,30.79,-312,-172,-136,
62,3652,12588,-8368,30.88,-486,-241,-167,
63,3608,12528,-8388,30.69,-329,-80,-146,
64,3580,12504,-8236,30.88,-286,-123,-104,
65,3528,12484,-8348,30.74,-304,-36,-168,
66,3684,12480,-8328,30.84,-275,-110,-173,
67,3660,12440,-8364,30.79,-368,-148,-172,
68,3672,12472,-8208,30.84,-308,-135,-191,
69,3644,12364,-8368,30.84,-333,-142,-127,
70,3688,12448,-8384,30.79,-313,-132,-117,
71,3680,12452,-8380,30.79,-365,-196,-110,
72,3668,12424,-8424,30.79,-381,-184,-129,
73,3656,12456,-8336,30.79,-407,-203,-185,
74,3708,12400,-8348,30.79,-308,-246,-134,
75,3708,12428,-8328,30.84,-468,-226,-167,
76,3608,12456,-8284,30.84,-400,-216,-107,
77,3544,12468,-8348,30.84,-371,-187,-194,
78,3656,12544,-8308,30.84,-330,-163,-131,
79,3668,12504,-8320,30.93,-360,-198,-120,
80,3672,12496,-8236,30.84,-392,-229,-129,
81,3672,12560,-8308,30.88,-376,-175,-127,
82,3692,12400,-8372,30.88,-324,-142,-142,
83,3712,12484,-8324,30.88,-398,-172,-179,
84,3680,12524,-8292,30.88,-377,-238,-155,
85,3592,12496,-8332,30.79,-305,-130,-118,
86,3632,12480,-8424,30.84,-356,-223,-103,
87,3568,12568,-8164,30.93,-352,-177,-149,
88,3696,12452,-8400,30.84,-333,-230,-152,
89,3692,12440,-8220,30.84,-492,-297,-151,
90,3560,12460,-8360,30.93,-300,-200,-132,
91,3752,12536,-8412,30.84,-387,-208,-142,
92,3604,12392,-8344,30.79,-409,-247,-189,
93,3684,12492,-8436,30.88,-314,-167,-148,
94,3632,12392,-8276,30.79,-290,-153,-147,
95,3600,12440,-8340,30.88,-388,-222,-137,
96,3592,12428,-8308,30.88,-391,-167,-177,
97,3664,12456,-8384,30.98,-470,-274,-220,
98,3572,12444,-8272,30.84,-416,-275,-200,
99,3580,12416,-8276,30.74,-460,-157,-161,
100,3724,12524,-8360,30.88,-353,-154,-145,
101,3680,12496,-8208,30.84,-424,-216,-160,
102,3708,12444,-8172,30.84,-351,-190,-137,
103,3616,12512,-8348,30.84,-431,-178,-152,
104,3604,12552,-8372,30.79,-343,-137,-145,
105,3628,12476,-8224,30.79,-411,-160,-157,
106,3624,12464,-8180,30.88,-383,-197,-134,
107,3644,12508,-8396,30.79,-355,-164,-155,
108,3556,12504,-8428,30.88,-349,-251,-165,
109,3552,12552,-8344,30.79,-420,-236,-174,
110,3584,12456,-8204,30.79,-257,-158,-145,
111,3564,12484,-8424,30.88,-419,-203,-136,
112,3652,12500,-8216,30.88,-370,-180,-97,
113,3692,12592,-8172,30.79,-370,-212,-145,
114,3648,12476,-8352,30.79,-415,-164,-203,
115,3612,12488,-8140,30.88,156,214,-104,
116,3720,12368,-8432,30.88,-580,-389,-202,
117,3580,12500,-8332,30.88,-398,-293,-116,
118,3672,12464,-8392,30.79,-385,-244,-133,
119,3720,12456,-8248,30.88,-439,-249,-195,
120,3552,12460,-8224,30.88,-252,-19,-158,
121,3592,12484,-8316,30.88,-394,-174,-178,
122,3492,12556,-8200,30.88,-501,-285,-131,
123,3764,12564,-8248,30.79,-258,-95,-143,
124,3624,12396,-8424,30.79,-407,-99,-203,
125,3684,12536,-8152,30.88,-464,-198,-138,
126,3580,12472,-8292,30.93,-314,-252,-158,
127,3584,12412,-8312,30.84,-299,-137,-165,
128,3580,12544,-8344,30.93,-341,-109,-225,
129,3656,12680,-8396,30.84,-229,-47,-211,
130,3716,12512,-8416,30.93,-624,-268,-238,
131,3640,12464,-8192,30.84,-326,-253,-185,
132,3676,12484,-8420,30.93,-404,-345,-105,
133,3628,12524,-8296,30.93,-295,-169,-42,
134,3704,12312,-8396,30.88,-385,-317,-89,
135,3600,12568,-8260,30.88,-393,-313,-113,
136,3608,12472,-8304,30.98,-619,-401,-130,
137,3216,12312,-7344,30.79,-659,-233,-202,
138,3668,12564,-8224,30.79,-607,-211,-203,
139,3516,12484,-8284,30.88,-419,-201,-38,
140,3584,12644,-8316,30.88,-389,-261,-142,
141,3604,12560,-8392,30.88,-359,-257,-165,
142,3548,12480,-8144,30.88,-194,-153,-165,
143,3612,12536,-8116,30.88,-434,-240,-187,
144,3636,12524,-8280,30.79,-346,-198,-183,
145,3440,12560,-8192,30.79,-391,-103,-151,
146,3552,12588,-8212,30.84,-355,-217,-199,
147,3648,12332,-8212,30.84,-246,-198,-140,
148,3772,12304,-8024,30.84,-166,197,-201,
149,3676,12560,-8564,30.84,-453,-255,-96,
150,3532,12412,-8208,30.79,-177,-66,-48,
151,3556,12576,-8268,30.88,-438,-269,-84,
152,3664,12512,-8304,30.79,-345,-111,-138,
153,3572,12484,-8236,30.79,-419,-157,-215,
154,3616,12424,-8232,30.88,-482,-154,-225,
155,3616,12436,-8272,30.79,-510,-279,-161,
156,3584,12516,-8240,30.79,-310,-144,-153,
157,3644,12428,-8316,30.79,-336,-193,-130,
158,3664,12540,-8168,30.88,-469,-270,-130,
159,3632,12536,-8292,30.88,-392,-159,-130,
160,3572,12424,-8356,30.88,-375,-145,-173,
161,3692,12604,-8260,30.88,-367,-175,-133,
162,3652,12440,-8180,30.79,-314,-134,-154,
163,3616,12452,-8100,30.98,-354,-168,-148,
164,3612,12516,-8188,30.88,-362,-263,-186,
165,3600,12492,-8344,30.88,-261,-294,-63,
166,3684,12588,-8312,30.79,-327,-224,-153,
167,3632,12488,-8332,30.88,-374,-192,-129,
168,3712,12500,-8324,30.88,-421,-220,-188,
169,3568,12528,-8284,30.88,-467,-251,-257,
170,3588,12520,-8252,30.98,-355,-222,-172,
171,3576,12552,-8296,30.93,-302,-229,-61,
172,3620,12552,-8256,30.88,-351,-235,-155,
173,3536,124˛                                                                ,,,,,,
174,3952,12388,-8144,30.84,-359,54,-263,
175,3892,12552,-8332,30.88,-98,-97,-18,
176,3772,12388,-8128,30.88,-426,-224,-124,
177,4064,12348,-8524,30.93,-145,-144,-170,
178,3948,12424,-8100,30.93,-518,-197,-54,
179,3944,12216,-8076,30.79,206,-63,-99,
180,4156,12320,-8264,30.98,-887,-567,-431,
181,3856,12448,-8032,30.88,-299,54,-20,
182,3908,12296,-8284,30.98,-321,-121,-203,
183,3956,12496,-8400,30.93,-520,-57,-217,
184,4016,12484,-8556,30.93,-214,-94,-73,
185,3948,12492,-8080,30.88,-383,-528,-70,
186,4232,12316,-8492,30.98,-256,-202,-222,
187,4072,12328,-8464,30.93,-458,1,-112,
188,3732,12560,-8256,30.88,-276,-349,-248,
189,3760,12016,-7932,30.88,-78,-231,-124,
190,4048,12220,-8340,30.93,-541,-348,-185,
191,3992,12344,-8044,30.93,-120,383,-298,
192,3800,12544,-8464,30.88,-162,27,-112,
193,3844,12484,-8172,31.02,-721,-626,-136,
194,3856,12476,-8376,30.93,-246,-88,-66,
195,3968,12340,-8368,30.88,-655,-550,-79,
196,4116,12232,-8528,30.88,-557,-35,-345,
197,3848,12528,-8460,30.93,-432,-166,-145,
198,3888,12404,-8248,30.93,-137,-134,-20,
199,3836,12476,-8528,30.98,-102,-125,-27,
200,4064,12196,-8296,30.93,-661,-364,-126,
201,3944,12400,-8180,30.93,-426,-372,-196,
202,3776,12312,-8316,30.93,-72,-244,-119,
203,3876,12384,-8192,31.02,-503,-251,-132,
204,3940,12440,-8540,30.93,-191,-180,-323,
205,4108,12216,-8436,30.93,-367,64,-262,
206,3912,12364,-8480,30.88,-278,87,-68,
207,3692,12484,-8500,30.88,-230,-531,-194,
208,3796,12280,-8544,30.88,-239,-257,-152,
209,4008,12184,-8504,30.88,-745,-458,-298,
210,3688,12700,-8388,30.98,-157,-243,-3,
211,3812,12292,-8328,30.84,-302,-237,-100,
212,3632,12324,-8168,30.93,-284,132,-50,
213,3832,12376,-8376,30.79,-1026,-176,-115,
214,4036,12584,-8276,30.98,-126,-313,-249,
215,3704,12628,-8124,30.93,-62,-318,79,
216,3732,12424,-8032,30.98,-791,-1122,578,
217,4256,12088,-9164,30.88,-1078,-1719,1563,
218,3936,12020,-7924,30.98,-600,-1059,493,
219,4304,12132,-8484,30.98,-1395,465,-483,
220,3940,12040,-8120,30.88,-273,189,-557,
221,3808,12540,-8052,30.93,123,156,-343,
222,4432,12512,-8936,30.88,-1650,30,-1227,
223,4720,12464,-8368,30.98,-2669,1324,-2972,
224,4932,14924,-9112,30.88,-5669,3221,-7256,
225,8340,9556,-15620,30.93,-6477,-2634,3247,
226,4812,11448,-6212,30.84,-2912,-7205,8259,
227,4488,14960,-3024,30.88,1786,-2827,4768,
228,2212,17980,1504,30.88,5250,-922,-1061,
229,32,20012,-8280,30.93,6681,7811,-7547,
230,500,7564,-18008,30.84,-4935,1370,2957,
231,3020,6432,-10436,30.98,-1006,-9988,10788,
232,18044,10420,-3368,30.93,-2453,-12919,7958,
233,11380,16268,1828,30.88,3550,-5221,-8386,
234,-2204,18544,-6496,30.84,4484,8837,-9608,
235,-7228,10668,-18256,30.93,-6692,8796,-4447,
236,60,7224,-15620,30.98,-6306,512,8809,
237,17060,10460,-4684,30.93,-2999,-10391,10260,
238,14292,14236,2780,30.93,97,-7707,-9685,
239,-1672,15748,2100,30.93,8584,371,-10279,
240,-8956,14836,-12076,30.93,1231,16184,-6307,
241,-2352,3552,-22316,30.88,-8384,7325,3648,
242,18548,2280,-13868,30.98,-7386,-11218,22001,
243,17608,16568,2340,30.88,1977,-8154,-2922,
244,6320,19416,2484,30.93,8898,-3501,-13241,
245,-7376,14196,-10920,30.93,1431,8379,-4903,
246,-6708,7156,-21008,30.88,-11867,11523,5045,
247,16836,9996,-4936,31.02,-5163,-6951,14580,
248,18604,14720,6716,30.88,-122,-3952,-13163,
249,-968,12916,-532,30.93,16213,5985,-7568,
250,-2636,9368,-14704,30.93,6420,16390,-5597,
251,-1032,-2424,-26688,30.88,6026,4643,6900,
252,9948,6044,-10628,30.98,-2685,-6412,-1986,
253,10552,15600,-7444,31.02,-3794,-5833,-3119,
254,2560,12272,-7748,30.93,1006,-1099,3722,
255,1712,14428,-6912,30.93,4587,3756,-4834,
256,5176,11304,-10612,31.02,2343,-152,3607,
257,5464,12812,-8004,30.93,-6958,-5028,-289,
258,3820,13468,-7852,30.88,-4330,-3299,1816,
259,4284,12340,-8408,30.88,-254,100,1508,
260,5176,11824,-8004,30.98,-1163,684,556,
261,5188,11848,-8316,30.93,144,1474,-255,
262,4488,12272,-8044,30.88,1880,1596,-797,
263,4504,11792,-8252,30.88,1999,-1153,-77,
264,4548,12252,-8032,30.98,1288,-1195,-597,
265,4108,11940,-9660,30.98,294,147,402,
266,5508,11064,-8912,30.98,-1865,-400,-388,
267,4412,12376,-8520,30.98,-82,632,-906,
268,4584,11856,-8588,30.98,839,901,-298,
269,4784,11684,-8324,30.93,770,-801,765,
270,4712,12056,-8236,30.98,-9,-1512,355,
271,4644,11408,-9480,30.93,52,-1544,909,
272,4864,11208,-9564,30.88,-1544,-727,387,
273,4248,12236,-8412,30.98,-1262,-56,-1204,
274,4156,11784,-9196,30.93,754,699,-657,
275,4052,11880,-8496,30.98,161,479,-1140,
276,4540,11400,-9644,30.88,-359,1022,-805,
277,4212,12148,-8556,30.88,-2848,-573,-1408,
278,5108,11704,-8432,30.93,-1522,376,-844,
279,3908,12112,-8776,30.93,-363,781,-855,
280,3548,12536,-8992,30.93,-473,1112,-1507,
281,4364,11724,-8056,30.98,-1029,732,-995,
282,4488,12320,-8364,30.98,-411,614,-749,
283,4412,12336,-8560,30.98,-754,-349,-397,
284,4276,12312,-8756,30.88,-314,-33,-593,
285,4088,12332,-8320,30.98,-861,-122,-27,
286,4296,12552,-7664,31.02,-1055,-271,-1,
287,4532,12352,-8228,30.84,336,283,-360,
288,3996,12464,-8584,30.93,191,-133,95,
289,4228,12192,-8012,30.98,-1036,-790,116,
290,4156,12388,-8612,30.98,-295,-481,70,
291,4340,12176,-8168,30.93,-144,-329,-351,
292,4180,12288,-8704,30.84,-622,-234,157,
293,3868,12580,-8056,30.93,-1045,-169,-164,
294,3972,12332,-8128,30.88,-155,80,-63,
295,4276,12360,-8244,30.93,-458,-382,-253,
296,4044,12384,-8372,30.93,-389,-333,-277,
297,4516,12476,-7640,30.93,-358,-83,-34,
298,4304,12568,-8448,30.98,-193,-247,106,
299,4352,12268,-8452,30.98,-523,-560,-396,
300,4064,12412,-7940,30.98,-506,-87,-176,
301,4268,12008,-8212,30.98,-73,-291,167,
302,4160,12540,-7988,30.93,-478,-358,-5,
303,4560,12180,-7880,30.88,-968,-316,-254,
304,4000,12384,-8872,30.98,163,102,-403,
305,4460,12384,-7640,30.93,-282,-109,79,
306,4168,12364,-8200,30.84,204,-21,20,
307,4056,12528,-8364,30.93,-475,-541,-105,
308,4208,12348,-8176,30.93,-56,94,-208,
309,4104,12220,-8876,30.88,250,52,20,
310,4152,12512,-7920,30.98,-619,-113,-142,
311,4400,12560,-8032,30.84,-233,-484,-73,
312,4312,12276,-8440,30.88,125,-157,30,
313,4460,12152,-8352,31.02,-326,-258,-54,
314,4124,12408,-8320,30.98,-400,-130,-28,
315,4084,12380,-8408,30.98,-331,-379,-78,
316,4236,12164,-8400,30.88,-343,-205,-214,
317,4208,12412,-8444,30.88,-243,-54,-218,
318,4236,12272,-8188,30.88,-345,-154,-52,
319,4256,12308,-8196,30.93,-284,-103,-49,
320,4280,12244,-8504,30.93,-629,-500,-254,
321,4420,12236,-8364,31.02,-262,-37,-350,
322,4304,12360,-8180,30.93,-335,-264,4,
323,4324,12252,-8472,30.88,-350,-100,-37,
324,4308,12260,-8536,30.98,-299,-28,-359,
325,4328,12352,-8500,30.88,-510,-200,-286,
326,4272,12312,-8192,30.88,-167,-217,-37,
327,4072,12068,-8684,30.88,-488,-514,185,
328,4372,12296,-8344,30.98,-635,-359,-106,
329,4160,12256,-8512,30.98,-600,-431,-165,
330,4216,12276,-8392,30.98,-140,-61,-211,
331,4444,12112,-8444,30.88,-438,-309,104,
332,4100,12192,-8464,31.02,-399,-375,248,
333,4228,12220,-8436,30.93,-396,-32,-405,
334,4088,12092,-8800,30.93,-1082,-833,-662,
335,4084,12692,-8172,30.98,-696,-131,-27,
336,4368,12544,-7976,30.98,-200,-238,-12,
337,4100,12536,-8316,30.93,-467,-298,55,
338,4436,12152,-8072,30.93,-665,-157,-199,
339,4216,12532,-7936,30.93,-238,75,-554,
340,4192,12388,-8052,30.98,-357,-297,150,
341,4208,12256,-8520,30.88,-476,-481,191,
342,4312,12256,-8632,30.88,-456,-453,-295,
343,4116,12408,-8388,30.88,-676,-7,-414,
344,4340,12288,-8296,31.02,-168,-162,-263,
345,4012,12496,-8248,30.93,-254,-254,-17,
346,4128,12328,-8188,30.93,-665,-203,-154,
347,4176,12376,-8416,30.93,-723,-191,-380,
348,4080,12572,-8060,30.93,-594,129,-548,
349,3992,12692,-7716,30.93,-202,271,61,
350,4352,12376,-8012,30.93,-233,-246,72,
351,4092,12412,-8328,30.98,-688,-417,87,
352,4144,12352,-7784,30.98,8,-23,-240,
353,4388,12260,-8396,31.02,-488,-442,-4,
354,4260,12424,-8120,30.88,-101,24,-1,
355,4108,12560,-8008,30.93,-355,-18,-12,
356,4248,12328,-8328,30.98,-481,-106,-214,
357,4332,12592,-8028,30.98,-261,-18,-284,
358,4192,12212,-8224,30.98,-378,-296,54,
359,4200,12320,-8144,30.93,-110,-160,-98,
360,4112,12308,-8452,30.93,-302,-262,-428,
361,4292,12440,-8236,31.02,-433,-45,-304,
362,4304,12356,-8136,30.93,-206,-53,-268,
363,4148,12472,-8456,30.93,-544,-234,-126,
364,4356,12352,-8136,30.93,-777,8,-335,
365,4288,12304,-8160,30.98,-241,310,469,
366,4408,12296,-8220,30.98,-204,-505,-170,
367,4164,12472,-8168,30.98,-361,-273,26,
368,4340,12332,-8324,30.93,-264,-202,-136,
369,4308,12144,-8316,30.93,-338,-263,-235,
370,4200,12492,-8248,31.02,-395,-139,-260,
371,4460,12412,-8056,31.02,-90,112,-431,
372,4208,12300,-8484,30.88,-803,-658,-6,
373,4148,12580,-7848,30.93,-111,78,-149,
374,4316,12272,-8192,30.93,-141,21,-107,
375,4316,12408,-8312,30.88,-481,-439,-180,
376,4356,12356,-8116,30.98,-410,-243,-73,
377,4364,12340,-8268,30.98,-294,-223,-102,
378,4284,12484,-8500,30.98,-459,-352,24,
379,4268,12412,-8136,30.93,-424,-298,-24,
380,4264,12408,-8072,30.93,-269,-106,-71,
381,4480,12108,-8036,30.98,-441,-359,-140,
382,4244,12284,-8472,30.98,-476,-477,-110,
383,4036,12540,-8204,30.93,-506,-409,-9,
384,4188,12276,-8172,30.98,-244,-253,-48,
385,4272,12448,-8224,31.02,-240,10,-195,
386,4280,12392,-8108,30.93,-402,-189,-50,
387,4208,12364,-8348,30.98,-409,-145,-234,
388,4352,12248,-8164,30.88,-366,-255,-98,
389,4172,12428,-8412,30.98,-248,-148,-236,
390,4348,12344,-8156,31.07,-363,59,-111,
391,4280,12256,-8420,30.98,-379,-285,-184,
392,4212,12412,-8332,30.98,-86,-286,-79,
393,4236,12344,-8184,30.93,-234,98,-135,
394,4148,12352,-8272,30.88,-697,-666,-44,
395,4100,12476,-8040,30.98,-162,107,-229,
396,4352,12384,-8100,31.07,-338,-287,-117,
397,4180,12260,-8388,30.98,-107,-105,-71,
398,4220,12564,-8188,30.98,-563,-459,126,
399,4200,12364,-8412,30.88,-467,-364,-95,
400,4216,12528,-7720,30.98,1,24,-261,
401,4264,12332,-8496,30.98,-564,-522,-159,
402,4264,12564,-8112,30.98,-298,35,0,
403,4120,12340,-8612,30.93,-523,-385,5,
404,4108,12264,-8844,30.84,347,103,-428,
405,4268,12388,-8664,30.93,-831,285,-853,
406,4216,12272,-7392,30.88,1329,1922,-470,
407,4236,12052,-8112,30.84,-1093,-536,-344,
408,4580,12300,-8016,30.93,34,171,-259,
409,4124,12544,-8448,30.98,-549,-679,104,
410,4396,12416,-7792,30.93,147,285,-107,
411,4032,12472,-8168,30.98,-624,-579,238,
412,3924,12280,-7924,30.88,-549,-316,21,
413,4144,12284,-8344,31.02,-935,-692,-251,
414,4048,12388,-8532,30.93,52,-125,18,
415,4484,12140,-8432,30.98,-851,-585,-72,
416,4296,12428,-8328,30.98,-425,-191,-166,
417,4440,12200,-8080,30.98,122,-89,-70,
418,4632,12328,-8532,31.02,-586,-246,-176,
419,3860,12564,-8524,30.84,-290,-288,18,
420,4312,12344,-8204,30.98,256,177,-237,
421,4320,12256,-8448,30.88,-581,-422,64,
422,3880,12556,-8076,31.02,-41,94,-59,
423,4272,12452,-8340,30.98,54,-71,-331,
424,4348,12288,-8728,30.93,-612,-609,-78,
425,4032,12636,-8300,30.98,-207,257,-330,
426,3824,12368,-9144,30.88,-344,-466,-114,
427,4136,12344,-8568,31.02,-333,2,-299,
428,4464,12216,-8344,30.88,-540,104,113,
429,4720,11852,-8256,30.93,-171,-28,-194,
430,4308,12168,-8372,30.84,-456,-371,-160,
431,4128,12316,-8268,30.98,-587,-265,-80,
432,4356,12036,-8648,30.93,83,232,-141,
433,4104,12260,-8324,31.02,-532,-493,-54,
434,4020,12400,-8792,30.98,-738,-483,-161,
435,4256,12120,-8260,31.07,449,574,-390,
436,4380,12336,-8448,30.98,-594,-321,-371,
437,4028,12404,-9208,30.88,-81,169,-19,
438,4216,12256,-8180,30.93,13,178,-88,
439,4244,12224,-8424,30.98,-576,-670,-278,
440,4240,12476,-8208,30.98,-403,64,-187,
441,4256,12204,-8324,31.07,-468,-324,92,
442,4560,12292,-8332,31.02,-21,-16,-153,
443,4476,12196,-8524,31.02,-787,-633,-28,
444,4208,12296,-8192,30.88,-384,37,-265,
445,4504,12344,-8076,30.88,58,139,-205,
446,4536,12100,-8196,30.93,-386,-360,-48,
447,4112,12276,-8380,31.02,-537,-191,27,
448,4352,12212,-8292,30.98,-570,-474,-135,
449,4440,12032,-8304,31.07,-457,-244,-38,
450,4340,12256,-8412,30.88,-379,-173,-150,
451,4300,12444,-8336,30.98,-415,-503,-85,
452,4144,12316,-8412,30.98,-293,-147,-123,
453,4096,12276,-7852,30.98,-255,76,-235,
454,4268,12292,-8168,30.93,-386,-203,-116,
455,4472,12436,-7888,30.98,-199,49,-165,
456,4392,12480,-8368,30.93,-203,-68,-325,
457,4532,12264,-8512,30.98,-427,-58,-130,
458,4108,11928,-8108,30.88,-518,-197,-169,
459,4384,12384,-7840,30.98,-49,121,-363,
460,4284,12084,-8364,30.98,-320,-39,-83,
461,4428,12000,-8196,30.93,-342,-243,-144,
462,4224,12440,-8052,30.93,10,228,-154,
463,4328,12136,-8568,30.98,-617,-667,-117,
464,4192,12160,-8300,30.93,-525,37,-133,
465,4332,12076,-8248,30.88,-404,-375,-55,
466,4188,12184,-8748,30.98,-505,-556,-17,
467,4320,12208,-8340,30.88,-583,-29,-242,
468,4084,12412,-8360,30.98,-354,-494,-134,
469,4212,12028,-8236,30.98,-409,-418,-161,
470,4240,12236,-8304,30.88,-478,-27,-112,
471,4080,12340,-8476,30.98,-534,-506,-61,
472,4320,12160,-8652,30.93,-114,-492,-139,
473,4040,12380,-8232,30.98,-305,-201,-107,
474,3960,12468,-7564,30.88,-157,-82,-130,
475,4176,12356,-8176,30.88,-431,-261,-213,
476,4360,12324,-8324,30.98,-410,-185,-55,
477,4132,12244,-8196,30.98,-322,-341,-184,
478,4072,12348,-8012,30.98,-145,18,11,
479,4576,12080,-8444,30.88,-326,-304,-79,
480,4336,12360,-8308,30.98,-197,90,-143,
481,4468,12052,-8732,30.98,-507,-358,-73,
482,4436,12272,-8284,30.88,-165,25,-157,
483,4528,12184,-9228,31.02,-108,47,-97,
484,4720,12280,-8068,30.98,-658,-489,-330,
485,4464,12476,-7844,30.98,-222,449,-692,
486,4368,12324,-7392,30.88,148,775,-251,
487,4140,12276,-8520,30.93,-459,-205,-391,
488,4048,12752,-7820,30.93,-67,820,-730,
489,4340,12040,-8076,30.93,-992,-701,-434,
490,4396,12424,-8492,30.93,-477,-564,-464,
491,4220,12680,-7548,31.02,271,444,-30,
492,4088,12368,-7916,30.88,-261,-383,279,
493,4168,12512,-8740,31.02,-572,-562,-321,
494,4036,12440,-8228,30.98,-650,-371,-287,
495,4360,12168,-7984,30.98,174,-37,60,
496,4080,12408,-8104,30.98,-664,-1000,180,
497,4056,12280,-8468,30.88,-501,-552,36,
498,4040,12444,-8460,30.98,-339,-178,-87,
499,4188,12508,-8540,30.84,-61,-12,-368,
500,4380,12276,-8156,30.93,-369,-103,-86,
501,4068,12592,-8052,30.93,-303,-174,10,
502,4312,12216,-8112,30.98,-311,-100,76,
503,4316,12156,-8536,30.93,-696,-407,-247,
504,4120,12384,-8064,30.98,-658,-108,-412,
505,4340,12216,-7868,30.98,-32,-182,-20,
506,4020,12288,-8256,30.93,28,-145,71,
507,4020,12296,-8332,31.07,-735,-608,-203,
508,3876,12416,-8132,30.98,-423,-144,-34,
509,4200,12188,-8632,30.98,-101,-130,-48,
510,4276,12272,-8216,31.07,-383,-348,17,
511,4332,12392,-8384,31.02,-567,-349,66,
512,4212,12176,-8576,30.98,-127,35,-73,
513,4000,12060,-8124,30.93,-506,-303,-358,
514,4092,12260,-8132,30.98,-567,-276,-93,
515,4240,12412,-8036,30.93,31,73,-93,
516,4220,12316,-8660,30.98,-670,-747,80,
517,4260,12452,-8332,30.93,-521,-259,-110,
518,4636,12600,-8288,30.93,-424,-110,-403,
519,4164,12328,-8564,30.93,84,110,-152,
520,4312,12456,-8340,30.88,-407,-87,-31,
521,4164,12404,-8532,30.93,-426,-490,151,
522,4568,12436,-8520,31.02,-30,-61,-206,
523,4316,12148,-8268,30.88,-586,-437,-100,
524,4164,12316,-8380,30.98,-473,-356,-177,
525,3772,12212,-7872,30.84,-308,-176,103,
526,4332,12204,-8432,30.98,-306,-305,-119,
527,4120,12492,-8472,31.02,-304,179,-210,
528,4676,12388,-8396,30.98,-375,-316,-38,
529,4232,12388,-8468,30.88,-183,-64,-266,
530,4016,12344,-8300,30.98,-298,-172,-210,
531,4420,12536,-8492,30.98,-304,51,-179,
532,4228,12212,-8616,30.88,-518,-413,-161,
533,4372,12320,-8144,30.88,-368,-221,-126,
534,4292,12168,-8124,30.98,-130,60,-118,
535,4128,12292,-8432,30.93,-526,-390,268,
536,4232,12204,-8144,30.84,-395,-68,-191,
537,4396,12440,-8392,30.93,-279,90,-119,
538,4568,12332,-8460,31.02,-469,-177,-98,
539,4288,12368,-8292,30.88,-467,-27,91,
540,4624,12072,-8356,30.98,-522,-589,-13,
541,4536,12440,-8792,30.93,-91,141,-98,
542,4416,12172,-8120,30.98,-797,-243,104,
543,4192,12300,-7784,30.98,-297,-59,20,
544,3992,12132,-8280,30.93,-337,-160,41,
545,4368,12096,-7924,31.02,-642,-349,-185,
546,4076,12284,-8096,30.93,-166,-58,87,
547,3988,12388,-7896,30.98,-339,-200,-30,
548,4032,12456,-8076,31.02,-127,-77,224,
549,4340,12408,-7896,30.98,-290,44,-35,
550,4704,12096,-8192,30.98,-411,-420,-139,
551,4776,12148,-8028,30.88,124,434,-255,
552,4700,12240,-8604,30.93,-703,-336,-704,
553,4320,12340,-8080,31.02,-55,186,-48,
554,4260,12272,-8332,30.88,-317,-18,-646,
555,3964,12452,-8276,30.88,-264,-54,54,
556,4444,12300,-8152,31.02,-463,19,-106,
557,4780,12104,-8588,30.98,-563,-434,-86,
558,4516,12352,-8304,30.88,-257,-8,-319,
559,4364,12288,-8460,30.98,-170,-123,-385,
560,4188,12276,-8292,30.98,-442,-93,-168,
561,4108,12464,-8144,30.98,-413,-90,-237,
562,4332,12368,-8236,30.93,-393,-166,-115,
563,4440,12376,-8320,30.98,-318,-106,-160,
564,4292,12316,-8112,30.88,-370,-386,8,
565,4192,12324,-8300,30.93,-31,41,-303,
566,4584,12064,-8488,30.98,-547,-428,-60,
567,4364,12452,-8404,30.88,-460,-178,-160,
568,4524,12276,-8376,30.98,-399,62,-243,
569,4576,12248,-8372,30.93,-501,-418,-135,
570,4280,12308,-8436,30.88,-39,2,-55,
571,4184,12152,-7980,30.98,-166,-158,-212,
572,3984,12308,-8132,30.88,-512,-505,-6,
573,4252,12288,-8268,30.93,-250,111,-337,
574,4160,12436,-8364,30.93,-552,-315,-131,
575,4008,12484,-8300,30.93,-120,-212,-224,
576,4268,12468,-8184,31.02,-181,117,-260,
577,4388,12100,-8304,30.93,-537,-557,86,
578,4248,12352,-8508,30.98,-508,-18,-102,
579,4544,12160,-8372,30.98,-420,-522,130,
580,4488,12328,-8408,30.88,-219,72,-346,
581,4380,12304,-8212,30.93,-311,-171,-72,
582,4340,12332,-8516,31.02,-367,-329,-129,
583,4412,12344,-8500,30.93,-382,-171,-50,
584,4208,12388,-8344,30.93,-398,-242,-182,
585,4296,12244,-8292,30.93,-397,-117,149,
586,4516,12288,-8036,30.88,-340,227,-73,
587,4224,12580,-8372,30.98,-575,-468,0,
588,4356,12276,-8456,30.93,-220,-116,-60,
589,4448,12064,-8508,30.98,-395,-396,148,
590,4324,12396,-8148,30.98,-427,-46,-88,
591,4420,12184,-8340,30.93,-290,-92,-88,
592,4292,12244,-8296,30.98,-288,-105,-127,
593,4276,12208,-8108,30.98,-297,-8,-265,
594,4488,12368,-8452,30.98,-363,-208,-204,
595,4184,12400,-8092,30.98,-111,141,-213,
596,4548,12204,-8744,30.88,-759,-627,-73,
597,4448,12256,-8356,30.88,-423,6,-392,
598,4324,12520,-8448,30.93,-136,79,-296,
599,4396,12168,-8424,30.98,-428,-292,3,
600,4084,12360,-8504,30.93,-363,-331,-239,
601,4320,12320,-8384,31.02,70,17,-179,
602,4472,12152,-8120,30.98,-545,-471,21,
603,4088,12404,-8432,30.93,21,269,-542,
604,3824,12492,-8564,31.07,-644,-669,48,
605,4252,12436,-8180,31.02,82,136,-289,
606,4268,12256,-8744,30.98,-863,-924,22,
607,4124,12312,-8324,30.88,-239,123,-136,
608,4404,12116,-8388,30.98,-733,-858,-19,
609,4308,12456,-8408,30.93,16,141,-339,
610,4684,12164,-8240,30.98,-678,-532,-2,
611,4372,12160,-8352,30.88,-496,-303,83,
612,4532,12116,-8212,30.84,-299,-127,-100,
613,4352,12180,-8188,30.93,-514,-379,-144,
614,4412,12272,-8280,30.98,-510,-373,-104,
615,4456,12160,-8384,30.88,-361,-194,-102,
616,4372,12136,-8412,30.88,13,107,-26,
617,4476,12308,-8172,30.93,-462,-214,-33,
618,4420,12216,-8436,30.93,-216,-116,-127,
619,4436,12228,-8144,30.93,-537,-408,-79,
620,4496,12116,-8184,30.98,-384,-183,-132,
621,4428,12076,-8388,30.93,-272,-140,-139,
622,4584,12128,-8412,30.93,-114,-178,-163,
623,4352,12176,-8232,30.93,-512,-303,-95,
624,4420,12212,-8368,30.93,-379,-96,-149,
625,4420,12216,-8276,30.93,-453,-236,-123,
626,4028,12388,-8652,30.93,-421,-443,-176,
627,4428,12496,-8348,31.02,-251,42,-248,
628,4296,12216,-8412,30.88,-265,-139,49,
629,4484,12208,-8312,30.88,-327,54,-233,
630,4352,12252,-8384,31.02,-446,-101,-110,
631,4520,12284,-8092,30.93,-519,-261,-190,
632,4284,12284,-8408,30.93,-135,-22,-215,
633,4296,12344,-8216,30.93,-524,-317,-11,
634,4160,12284,-8208,31.02,-257,177,-176,
635,4472,12088,-8408,30.98,-384,-268,-67,
636,4388,12288,-8228,30.98,-120,147,-315,
637,4364,12296,-8280,30.88,-257,-516,-23,
638,4356,12136,-8464,30.88,-480,-235,-340,
639,4396,12416,-8208,30.98,-137,364,-474,
640,4064,12328,-8720,30.88,-769,-757,110,
641,4284,12340,-8256,30.93,74,-31,-125,
642,4480,12040,-8616,30.98,-768,-733,-224,
643,4124,12400,-8568,30.88,-235,-98,-27,
644,4240,12312,-8368,30.98,-483,-104,-55,
645,4144,12420,-8576,30.84,-329,-337,-26,
646,4236,12352,-8196,31.02,-173,28,-214,
647,4364,12216,-8400,30.88,-351,-616,-5,
648,4112,12428,-8276,30.88,-141,272,-406,
649,4308,12344,-8148,30.98,-370,17,-188,
650,4324,12324,-8308,30.93,-301,-121,-135,
651,4416,12172,-8396,30.84,-402,-392,-47,
652,4016,12528,-8468,31.02,-440,-135,-239,
653,4232,12332,-8408,30.93,-454,-301,-33,
654,4304,12276,-8316,30.93,-19,173,-179,
655,4468,12092,-8136,30.88,-414,-220,-20,
656,4132,12404,-8496,30.88,-439,-209,-202,
657,4344,12140,-8236,30.88,-416,-146,-127,
658,4296,12452,-8220,30.98,-103,97,-140,
659,4344,12236,-7972,30.98,-407,-330,-36,
660,4332,12144,-8440,30.98,-551,-390,-9,
661,4580,12176,-8156,30.84,-368,-211,-32,
662,3944,12532,-8576,30.93,-406,-511,-26,
663,4236,12360,-8456,30.93,-322,55,-190,
664,4384,12168,-8500,30.88,-404,-87,-148,
665,4216,12436,-8156,30.98,-338,-107,-160,
666,4304,12240,-8200,30.98,-134,310,-212,
667,4556,11976,-8184,30.98,-498,-82,-331,
668,4128,12500,-8336,30.98,-335,109,-342,
669,4280,12252,-8516,30.98,-532,-264,-124,
670,4168,12208,-8596,30.88,-152,-333,-64,
671,4116,12392,-8216,30.98,-26,123,-193,
672,4204,12312,-8492,30.93,-573,-303,-32,
673,4336,12268,-8372,30.98,-236,-108,-189,
674,4248,12228,-8528,30.98,-212,-221,-17,
675,4228,12428,-8404,31.07,-473,-370,-108,
676,4352,12208,-8344,30.98,-435,-147,-174,
677,4220,12264,-8500,31.07,-435,-299,-32,
678,4348,12212,-8500,30.88,-296,0,-212,
679,4284,12200,-8524,30.93,-574,-729,-86,
680,4328,12340,-8316,30.93,-250,-61,-129,
681,4308,12064,-8412,30.93,-554,-315,-5,
682,4348,12180,-7876,30.98,-150,-169,-367,
683,4200,12064,-8376,30.98,-712,-685,21,
684,4036,12448,-8244,30.93,-514,-54,-221,
685,4472,12148,-8172,31.02,-540,-263,-178,
686,4084,12472,-8616,30.93,-62,251,-476,
687,4476,12020,-8200,30.84,-305,16,-338,
688,4196,12448,-8228,30.88,-550,-53,-51,
689,4304,12312,-8284,30.93,-208,-246,1,
690,4540,12152,-8464,31.07,-224,-318,-11,
691,4256,12192,-8464,30.98,-392,-264,59,
692,4144,12468,-8260,30.93,-570,-218,289,
693,4352,12268,-8284,30.93,-169,-198,56,
694,4632,12316,-8296,30.98,-237,-99,-58,
695,4736,12004,-8564,30.98,-226,-542,-160,
696,4192,12484,-8264,30.98,-416,13,42,
697,4120,12104,-8112,30.93,-615,54,-24,
698,4260,12240,-8624,30.98,-187,-480,-13,
699,4428,11852,-8520,30.93,-324,-418,-82,
700,4284,12384,-8344,30.93,-341,230,-439,
701,3896,12460,-8240,30.93,-312,-24,-113,
702,4336,12152,-8508,30.93,-129,3,-184,
703,4440,12248,-8332,30.98,-296,143,-185,
704,4344,12312,-8516,30.93,-607,-319,-13,
705,4320,12308,-8644,31.02,-61,24,-198,
706,4548,12036,-8032,30.98,-659,-479,-102,
707,3928,12096,-8428,30.98,-437,-23,-215,
708,4364,12324,-8528,30.88,-578,-500,-42,
709,4464,12296,-8372,31.02,-36,-105,-231,
710,4464,12236,-8692,31.02,-601,28,-567,
711,4032,12368,-8240,30.88,-314,274,-257,
712,4524,12188,-7988,30.88,-484,-499,-23,
713,4220,12056,-8348,30.98,-5,-468,-318,
714,4084,12460,-8688,30.93,-514,-316,-354,
715,4128,12272,-8356,30.93,-315,-5,-22,
716,4492,12020,-8676,30.98,-313,-265,-275,
717,4016,12244,-8564,30.93,-346,67,-145,
718,4216,12356,-8064,30.88,-94,64,-275,
719,4352,12128,-8320,30.93,-478,-696,142,
720,4252,12208,-8296,30.93,-75,9,-100,
721,4308,12336,-8168,30.93,-539,-291,18,
722,4280,12128,-8428,31.02,-141,-91,-179,
723,4460,12024,-8576,30.98,-671,-314,-152,
724,4356,12252,-8328,30.88,-409,-431,9,
725,4184,12200,-8696,30.88,-129,-47,-155,
726,4244,12380,-8496,30.93,-619,-122,-261,
727,3876,12312,-8604,30.98,-273,-261,-81,
728,4116,12328,-8160,30.93,231,538,-313,
729,4284,11984,-8024,30.98,-517,-451,-98,
730,3936,12248,-8496,30.98,-232,-125,121,
731,4492,12032,-8368,30.98,-499,-344,-35,
732,4236,12280,-8364,30.98,-381,-238,-222,
733,3940,12484,-8380,30.98,-189,282,-231,
734,4664,11972,-8400,30.98,-301,-19,-52,
735,4240,12164,-8480,31.07,-513,-253,-90,
736,4288,12252,-7836,31.02,-196,-109,-182,
737,4344,12324,-8232,30.98,-202,2,-120,
738,4468,11880,-8080,30.98,-215,-99,-141,
739,4068,12564,-8328,30.98,-253,-26,-139,
740,4456,12140,-8332,30.98,-558,-493,-62,
741,4448,12160,-8332,30.98,-223,-147,-178,
742,4380,12024,-8816,30.93,-367,-535,10,
743,4300,12296,-8240,30.93,-276,27,-146,
744,4328,12008,-8292,30.98,-533,-397,97,
745,4324,12048,-8584,31.02,-416,-240,-198,
746,4488,12196,-8540,31.02,-380,-222,-60,
747,4260,12216,-8568,30.93,-428,-378,-226,
748,4364,12220,-8472,30.93,-365,-387,56,
749,4452,11984,-8472,30.88,-490,92,-137,
750,4408,12104,-9476,30.98,-418,-360,73,
751,4332,12308,-8084,30.93,-129,-179,-83,
752,4172,12452,-8496,31.07,-338,-201,-180,
753,4252,12288,-7892,30.98,-90,161,-173,
754,4280,12232,-9136,30.88,-646,-741,38,
755,4452,12260,-8344,30.93,-239,129,-198,
756,4372,12252,-8396,30.84,-362,-184,-67,
757,4544,12040,-8164,30.93,-259,-117,-132,
758,4540,12180,-8504,30.93,-254,-80,-193,
759,4600,11980,-8620,30.93,-297,2,-484,
760,4228,12204,-8560,30.98,-648,-420,-241,
761,4260,12220,-8236,30.93,-119,-70,-172,
762,4288,12156,-8296,31.02,-128,35,-21,
763,4576,12012,-8252,31.07,-414,4,-780,
764,4304,12236,-8644,30.93,-310,-143,-424,
765,3972,12580,-8128,31.02,-393,-48,-215,
766,4216,12160,-8432,31.02,-628,-513,-51,
767,4268,12220,-8420,30.93,-358,-138,-212,
768,4164,12236,-8136,31.02,137,358,-247,
769,4176,12272,-8612,30.98,-572,-444,-65,
770,4348,12128,-8672,30.98,-444,-108,-136,
771,4172,12060,-8388,31.02,-346,-85,-77,
772,4156,12168,-8464,30.88,-334,-191,-155,
773,4332,12240,-8472,31.02,-247,58,-247,
774,4280,12168,-8548,30.98,-705,-392,328,
775,4252,12276,-8280,30.88,-475,-124,-98,
776,4272,12156,-8588,30.98,-399,-282,98,
777,4492,12156,-8220,30.93,-405,-289,-132,
778,4320,12164,-8636,30.88,-372,-194,-150,
779,4056,12092,-8144,30.88,-459,-335,1,
780,4396,12168,-8388,30.93,-344,-76,-170,
781,4384,11992,-8396,30.98,-439,-325,-35,
782,4296,12152,-8504,30.98,-190,-99,-114,
783,4332,12108,-8384,30.98,-347,-144,-127,
784,4428,12136,-8360,30.98,-271,-79,-97,
785,4348,12228,-8580,30.98,-390,-337,-162,
786,4452,12184,-8452,31.07,-400,-370,-238,
787,4356,12140,-8344,30.88,-327,-102,-6,
788,4332,12176,-8424,30.88,-432,-252,-124,
789,4496,12052,-8632,30.98,-301,-95,-122,
790,4096,12316,-8452,30.88,-307,-14,-207,
791,4116,12276,-8768,31.02,-637,-569,24,
792,4392,12204,-7796,30.98,-233,-173,-142,
793,4432,12128,-8268,31.02,-207,129,-179,
794,4484,12236,-8348,30.98,-497,-295,73,
795,4388,12212,-8684,30.98,-1090,-533,-171,
796,3012,12304,-9276,30.98,-2360,-2126,-77,
797,4124,12616,-8048,31.02,-1487,-332,-607,
798,3756,12304,-7796,30.98,-2183,-771,-303,
799,4028,12748,-7896,30.88,-2010,-937,-218,
800,3832,12936,-7092,30.93,-95,435,-102,
801,4008,13036,-7212,30.98,1957,1236,91,
802,4680,12112,-8656,30.98,22,-590,65,
803,4240,12384,-7896,30.98,-261,435,-119,
804,4052,12548,-8248,30.88,203,334,-3,
805,3952,12344,-7936,31.02,-789,-554,66,
806,3812,12784,-7392,30.88,452,305,-215,
807,4308,12556,-8052,31.02,-487,-84,-126,
808,4176,12320,-8292,30.93,153,110,-99,
809,4136,12460,-7920,30.98,46,96,-152,
810,4224,12600,-8064,30.93,-118,-309,-123,
811,4304,12464,-8032,30.93,-43,60,-209,
812,4388,12264,-8288,30.98,-216,-239,-97,
813,4096,12456,-8052,30.98,-237,-226,-121,
814,4304,12368,-8388,30.98,-445,-137,-1,
815,4488,12420,-8168,30.93,-390,-93,-116,
816,4444,12456,-8240,30.88,-47,-113,-272,
817,4248,12428,-8332,30.88,-345,-278,-115,
818,4232,12232,-8236,30.98,-453,-434,-116,
819,4536,12184,-8236,30.98,-425,-287,-76,
820,4300,12376,-8140,30.98,-342,-207,-146,
821,4236,12432,-8024,30.98,-325,-568,-83,
822,4548,12168,-8464,30.98,-351,-220,-238,
823,4288,12272,-8352,31.07,-438,-281,-36,
824,4268,12264,-8208,30.98,-387,-223,-203,
825,4396,12296,-8132,30.98,-403,-103,-67,
826,4408,12204,-8232,30.88,-513,-351,-70,
827,4064,12352,-8244,30.88,-188,144,-236,
828,4256,12400,-8512,30.93,-358,-310,-151,
829,4288,12372,-8232,30.98,-354,-234,-148,
830,4240,12104,-8204,30.98,-287,-37,-126,
831,4028,12492,-8300,30.88,-358,-287,-28,
832,4276,12228,-8332,30.98,-350,-131,-143,
833,4152,12332,-8300,30.98,-285,-217,-153,
834,4560,12080,-8396,30.98,-252,-299,-171,
835,4384,12388,-8252,30.88,-325,-192,-141,
836,4384,12280,-8476,30.98,-447,-79,-155,
837,4532,12144,-8012,30.88,-321,-170,-137,
838,4344,12264,-8360,30.98,-372,-199,-117,
839,4264,12440,-8204,30.98,-341,-50,-68,
840,4184,12420,-8184,30.98,-417,-149,-90,
841,4268,12228,-8216,30.98,-241,29,-142,
842,4380,12352,-8312,30.93,-468,-350,-100,
843,4128,12356,-8464,30.98,-100,-3,-202,
844,4440,12108,-8388,30.93,-541,-402,-129,
845,4180,12572,-8328,31.02,-271,-154,-64,
846,4436,12284,-8276,30.93,-508,-126,-9,
847,4188,12328,-8480,30.93,-215,-175,-163,
848,4404,12236,-8400,30.93,-273,-161,-93,
849,4316,12336,-8268,30.93,-393,-116,-262,
850,4324,12308,-8100,30.93,-319,-264,-142,
851,4316,12300,-8180,30.93,-253,-138,-104,
852,4356,12216,-8308,30.93,-105,-82,-104,
853,4436,12216,-8360,30.93,-343,-277,-166,
854,4096,12252,-8380,31.02,-364,-189,-126,
855,4480,12220,-8276,31.02,-332,-242,-100,
856,4192,12264,-8532,30.98,-307,-297,-2,
857,4200,12356,-8152,30.93,-254,-197,-111,
858,4220,12344,-8400,30.93,-267,-318,-226,
859,4276,12184,-8224,30.98,-144,-141,-216,
860,4100,12368,-8436,30.98,-326,-196,-136,
861,4332,12268,-8300,30.98,-286,-29,-76,
862,4276,12252,-8288,30.88,-342,-260,-149,
863,4576,12244,-8364,30.98,-278,-248,21,
864,4040,12192,-8724,30.93,113,-124,-257,
865,4188,12332,-8360,30.93,-153,-103,-381,
866,4324,12144,-8572,31.02,-580,-412,-85,
867,4268,12092,-8704,31.02,-532,-700,-128,
868,4332,12096,-8480,31.02,-190,-423,-83,
869,4264,12192,-8420,30.93,374,144,-321,
870,4080,12188,-8696,30.98,-135,-579,-72,
871,4364,11876,-8700,30.98,-445,-718,-431,
872,3716,12172,-8080,30.98,-154,-256,-366,
873,4972,12084,-8960,30.98,-269,-221,-483,
874,4028,12152,-8384,30.98,-483,-181,-435,
875,3868,12128,-8896,30.98,-324,-473,-263,
876,3992,12232,-8300,30.98,-483,-135,-155,
877,3968,12256,-8472,30.93,-170,-256,-298,
878,3996,12304,-8704,31.02,-243,-228,-201,
879,4000,12412,-8376,31.02,-398,246,-191,
880,4048,12236,-8608,30.93,-428,-292,-150,
881,3852,12316,-8608,30.93,-678,-393,-48,
882,3956,12100,-8412,30.93,-476,-22,-162,
883,3936,12272,-8728,31.02,-378,-209,-172,
884,3940,12332,-8488,31.02,-552,-256,42,
885,4072,12128,-8392,30.88,-256,72,-205,
886,3900,12192,-8768,30.98,-301,-350,-15,
887,4132,12144,-8448,30.93,-633,-214,212,
888,4284,11872,-8540,30.93,-374,-289,-93,
889,4184,12164,-8608,30.93,-100,-149,-37,
890,3964,12152,-8284,30.84,-309,-16,-78,
891,4032,12164,-8544,30.98,-448,-83,34,
892,4080,12016,-8504,30.93,-548,-170,78,
893,4332,12236,-8596,31.02,-338,-153,-186,
894,4260,12048,-8572,31.02,-510,-470,-30,
895,4204,12192,-8600,30.84,-409,-243,-172,
896,4100,12132,-8424,30.93,-344,-292,118,
897,4300,11872,-8248,30.84,-207,-108,-121,
898,4136,12324,-8344,30.93,-397,-351,-119,
899,4156,12120,-8424,30.93,-247,-352,-122,
900,4184,12264,-8584,30.88,-494,-130,-29,
901,4204,12092,-8400,30.93,-436,-166,-100,
902,3920,12360,-8760,30.98,-520,-556,67,
903,4160,12108,-8504,30.93,-395,-215,-158,
904,4324,12156,-8648,30.93,-420,-213,-219,
905,4340,12228,-8388,31.02,-244,-472,-76,
906,4084,12344,-8548,30.93,-400,-316,-334,
907,4168,12328,-8772,30.93,-166,34,-110,
908,3876,11868,-8536,30.93,-215,-847,70,
909,4096,12372,-8224,31.07,-309,28,-283,
910,4144,12208,-8272,30.93,-712,-615,-11,
911,4240,12024,-8804,30.93,-296,-185,-139,
912,4260,12096,-8440,30.93,-505,-462,55,
913,4124,12164,-8576,30.98,-282,-83,-181,
914,3844,12412,-8536,30.98,-582,-552,14,
915,3968,12272,-8608,30.98,-345,-339,-161,
916,4100,12124,-8376,30.98,-442,-114,-50,
917,3752,12276,-8952,30.98,-393,-295,-121,
918,4100,12132,-8456,30.98,-250,-36,-171,
919,4180,12052,-8516,30.93,-422,-286,-115,
920,4132,12104,-8604,30.98,-273,-31,-213,
921,4260,12228,-8528,30.93,-424,-88,-86,
922,3700,12284,-8764,30.93,-520,-498,-105,
923,4272,12176,-8620,30.93,-273,-8,-142,
924,3972,11900,-8404,30.88,-311,-237,-145,
925,4104,12244,-8404,30.98,-307,-217,-46,
926,4220,12144,-8480,30.88,-320,94,-281,
927,4036,12320,-8440,30.93,-494,-36,-87,
928,4028,12184,-8508,30.93,-262,-224,-5,
929,4116,12144,-8552,30.98,-426,-213,-95,
930,4112,11936,-8184,30.98,-394,-240,-271,
931,4092,12088,-8608,30.88,-434,-355,-15,
932,4228,12000,-8416,30.98,-256,-128,-138,
933,3976,12332,-8932,30.98,-484,-453,-134,
934,4092,12168,-8244,30.98,-249,9,-217,
935,4104,11952,-8144,31.02,-462,-236,-189,
936,4096,12248,-8528,31.07,-501,-258,-90,
937,4196,12184,-8400,30.93,-144,-39,-174,
938,4060,12192,-8404,30.93,-484,-447,-53,
939,4068,12284,-8448,30.93,-192,-60,-269,
940,4260,12096,-8384,31.02,-579,-629,-17,
941,4104,12052,-8368,30.93,-395,-189,-19,
942,4324,11960,-8536,30.84,-206,-222,-118,
943,4048,12176,-8480,30.93,-362,-25,-115,
944,3968,12220,-8360,30.98,-720,-720,69,
945,3940,12152,-8688,30.98,-379,-126,-180,
946,3984,12084,-8184,30.88,-299,130,-187,
947,4204,12176,-8548,30.98,-487,-222,-127,
948,4032,12180,-8728,30.98,-431,-418,-62,
949,4064,12144,-8484,30.88,-291,-133,-86,
950,4112,12192,-8496,31.02,-506,-216,-130,
951,4228,11980,-8460,30.98,-271,-19,-203,
952,4064,12244,-8412,30.93,-367,-207,-41,
953,4264,12096,-8580,30.93,-288,-58,-152,
954,4180,12128,-8680,30.98,-168,-213,-137,
955,4196,12264,-8512,30.93,-374,-63,-105,
956,4036,12172,-8428,30.98,-458,-453,-160,
957,4216,12120,-8480,30.93,-54,39,-196,
958,4188,12040,-8564,30.98,-626,-462,-161,
959,4060,12116,-8576,30.98,-372,70,-152,
960,4240,12064,-8360,30.93,-159,-157,-112,
961,4172,12104,-8428,30.93,-500,-340,-10,
962,4068,12160,-8440,31.02,-308,-80,-51,
963,3996,12160,-8348,31.07,-79,74,-238,
964,4112,12284,-8480,30.93,-295,-49,-275,
965,3944,12348,-8368,30.93,-425,-226,-105,
966,4068,12164,-8704,30.93,-302,-509,-28,
967,4060,12264,-8784,30.84,-240,-55,-240,
968,4092,12092,-8624,30.84,-738,-467,-38,
969,4068,12116,-8548,30.88,-116,-42,-173,
970,4104,11948,-8536,30.98,-459,-275,-133,
971,4048,12272,-8452,30.93,-345,-81,-112,
972,4192,11964,-8416,30.98,-231,-148,-103,
973,3900,12204,-8760,30.84,-306,-135,-146,
974,4048,12156,-8484,31.02,-329,-84,-107,
975,4112,12168,-8372,30.84,-491,-372,-79,
976,3628,12480,-8372,30.93,-300,-240,-99,
977,3620,12284,-8472,30.98,-354,-185,-87,
978,3748,12252,-8404,30.93,-307,-354,-73,
979,3848,12308,-8512,30.98,-321,-247,-5,
980,3800,12232,-8396,30.93,-378,-274,-145,
981,3860,12204,-8532,30.98,-409,-254,-104,
982,3704,12256,-8452,30.93,-354,-222,-98,
983,3708,12288,-8500,30.88,-465,-189,-137,
984,3692,12360,-8380,30.88,-323,-153,-72,
985,3848,12220,-8480,30.88,-444,-287,-159,
986,3712,12296,-8464,30.98,-377,-188,-97,
987,3748,12248,-8412,30.98,-365,-192,-174,
988,3632,12356,-8612,30.88,-324,-184,-81,
989,3732,12372,-8268,30.93,-290,-219,-149,
990,3748,12328,-8592,30.93,-324,-292,-129,
991,3712,12340,-8572,30.98,-370,-249,-112,
992,3596,12212,-8404,30.98,-350,-198,-147,
993,3744,12228,-8556,30.88,-300,-204,-119,
994,3708,12320,-8528,30.88,-327,-200,-169,
995,3716,12172,-8504,30.88,-294,-183,-90,
996,3668,12228,-8448,30.93,-381,-264,-164,
997,3676,12228,-8512,31.02,-318,-178,-118,
998,3656,12340,-8564,30.98,-427,-233,-198,
999,3692,12352,-8584,30.88,-597,-252,-522,
1000,3624,12280,-8412,30.88,-367,-144,-92,
1001,3748,12152,-8500,30.93,-421,-97,-8,
1002,3708,12324,-8460,30.88,-469,-194,-322,
1003,3692,12264,-8496,30.88,-280,-65,10,
1004,3664,12280,-8412,30.88,-424,-238,-190,
1005,3696,12264,-8580,30.88,-365,-59,-50,
1006,3644,12392,-8436,30.93,-451,-177,-264,
1007,3824,12236,-8540,30.93,-304,-124,-72,
1008,3696,12316,-8616,30.98,-441,-163,-125,
1009,3672,12264,-8568,30.98,-386,-141,-179,
1010,3636,12376,-8456,30.88,-411,-164,-184,
1011,3800,12264,-8508,30.93,-347,-203,-119,
1012,3816,12428,-8564,30.93,-371,-152,-118,
1013,3708,12220,-8544,30.93,-354,-166,-82,
1014,3728,12448,-8416,30.98,-297,-173,-111,
1015,3724,12392,-8484,30.88,-450,-193,-105,
1016,3640,12328,-8548,30.88,-328,-158,-126,
1017,3776,12304,-8524,30.88,-446,-247,-134,
1018,3676,12260,-8492,30.88,-299,-155,-114,
1019,3680,12392,-8392,30.84,-382,-215,-76,
1020,3736,12316,-8456,30.93,-344,-223,-81,
1021,3724,12256,-8420,30.88,-313,-172,-98,
1022,3796,12272,-8428,30.88,-440,-216,-225,
1023,3632,12400,-8436,30.93,-417,-255,-274,
1024,3788,12300,-8296,30.93,-223,-108,50,
1025,3824,12324,-8388,30.98,-342,-222,-40,
1026,3788,12400,-8432,31.02,-234,-171,-84,
1027,3664,12224,-8416,30.93,-344,-239,-154,
1028,3720,12240,-8452,30.88,-293,-223,-63,
1029,3780,12300,-8452,30.98,-423,-267,-147,
1030,3772,12284,-8544,30.88,-310,-195,-111,
1031,3688,12336,-8524,30.93,-328,-201,-108,
1032,3664,12284,-8532,31.02,-347,-230,-124,
1033,3780,12392,-8584,30.93,-293,-217,-79,
1034,3720,12296,-8496,30.88,-371,-333,-202,
1035,3748,12260,-8484,30.88,-380,-239,-76,
1036,4696,12440,-9364,30.93,-579,-1141,-267,
1037,4172,12452,-8988,30.88,-228,125,-258,
1038,3876,12396,-8592,30.84,-352,-195,-140,
1039,3772,12420,-8728,31.02,-374,-215,-95,
1040,3764,12356,-8652,30.88,-436,-266,-321,
1041,3760,12320,-8460,30.88,-427,-250,-217,
1042,3648,12332,-8520,30.88,-424,-153,-105,
1043,3688,12320,-8524,30.98,-409,-70,-159,
1044,3616,12428,-8372,30.93,-367,-124,-158,
1045,3600,12428,-8544,30.93,-290,-111,-52,
1046,3668,12336,-8604,30.88,-436,-192,-92,
1047,3636,12288,-8564,30.93,-323,-155,-82,
1048,3792,12232,-8436,30.84,-318,-173,-44,
1049,3756,12284,-8496,30.88,-315,-218,-48,
1050,3676,12188,-8756,30.93,-325,-115,-155,
1051,3848,12360,-8616,30.93,-301,-210,-111,
1052,3656,12272,-8440,30.84,-402,-206,-160,
1053,3776,12264,-8508,30.93,-388,-176,-169,
1054,3808,12160,-8468,30.84,-334,-154,-111,
1055,3788,12264,-8364,30.98,-340,-155,-126,
1056,3724,12212,-8584,30.88,-349,-195,-117,
1057,3704,12248,-8464,30.88,-346,-260,-109,
1058,3612,12316,-8556,30.88,-500,-263,-347,
1059,3784,12328,-8480,31.02,-538,-208,-246,
1060,3560,12520,-8332,30.84,-343,-233,41,
1061,3592,12256,-8316,30.88,-405,-191,-245,
1062,3688,12364,-8628,30.88,-404,-312,-56,
1063,3540,12244,-8536,30.93,-360,-270,-165,
1064,3664,12324,-8508,30.93,-443,-165,-137,
1065,3656,12212,-8308,30.88,-334,-201,-62,
1066,3696,12408,-8496,30.88,-331,-184,-12,
1067,3784,12316,-8368,30.93,-249,-153,-13,
1068,3712,12288,-8448,30.93,-325,-262,-147,
1069,3744,12340,-8372,30.88,-282,-251,-84,
1070,3732,12376,-8600,30.98,-322,-241,-198,
1071,3648,12344,-8396,30.98,-388,-253,-128,
1072,3724,12336,-8776,30.93,-230,-123,-95,
1073,3672,12428,-8420,30.84,-407,-242,-237,
1074,3700,12276,-8492,30.84,-389,-214,-123,
1075,3608,12300,-8600,30.98,-508,-253,-288,
1076,3752,12272,-8628,30.93,-399,-165,-157,
1077,3548,12452,-8436,30.93,-413,-156,-96,
1078,3660,12256,-8472,30.93,-405,-209,-258,
1079,3640,12312,-8492,30.93,-280,-149,-176,
1080,3700,12244,-8360,30.93,-396,-228,-196,
1081,3716,12276,-8540,30.84,-352,-197,-4,
1082,3700,12296,-8444,30.93,-348,-157,-118,
1083,3704,12316,-8300,30.93,-338,-125,-118,
1084,3552,12392,-8368,30.93,-386,-67,-110,
1085,3716,12420,-8488,30.93,-348,-175,-197,
1086,3620,12300,-8356,30.84,-369,-104,-61,
1087,3756,12200,-8540,30.84,-402,-170,-127,
1088,3800,12260,-8544,30.93,-258,-82,-19,
1089,3708,12312,-8496,30.93,-324,-99,-95,
1090,3664,12340,-8472,30.88,-266,-131,-198,
1091,3720,12184,-8528,30.88,-306,-145,15,
1092,3768,12208,-8396,30.88,-349,-215,-107,
1093,3684,12308,-8652,30.98,-322,-142,-151,
1094,3696,12324,-8568,30.98,-357,-176,-157,
1095,3612,12280,-8520,30.79,-306,-174,-71,
1096,3740,12316,-8484,30.88,-401,-210,-120,
1097,3804,12304,-8584,30.98,-391,-268,-146,
1098,3732,12328,-8480,30.88,-407,-222,-120,
1099,3684,12236,-8500,30.79,-290,-227,-72,
1100,3716,12256,-8672,30.88,-392,-267,-196,
1101,3732,12320,-8584,30.88,-330,-195,-118,
1102,3668,12256,-8576,30.98,-505,-252,-308,
1103,3776,12260,-8456,30.88,-429,-258,-238,
1104,3628,12240,-8552,30.88,-394,-235,-96,
1105,3760,12324,-8632,30.79,-362,-210,-204,
1106,3572,12260,-8552,31.02,-347,-159,-83,
1107,3724,12396,-8592,31.02,-365,-169,-183,
1108,3612,12296,-8472,30.93,-457,-203,-58,
1109,3632,12352,-8684,30.93,-364,-167,-162,
1110,3652,12368,-8288,30.93,-279,-170,-92,
1111,3632,12368,-8432,30.88,-363,-206,-119,
1112,3680,12320,-8596,30.84,-276,-183,-4,
1113,3688,12288,-8696,30.88,-272,-206,-75,
1114,3648,12304,-8456,30.88,-334,-210,-99,
1115,3680,12332,-8480,30.88,-384,-254,-155,
1116,3728,12264,-8512,30.88,-350,-224,-118,
1117,3708,12240,-8544,30.98,-377,-238,-193,
1118,3660,12324,-8404,30.98,-307,-217,-197,
1119,3604,12364,-8544,30.98,-494,-300,-207,
1120,3528,12344,-8592,30.88,-266,-297,-96,
1121,3544,12276,-8540,31.02,-424,-217,-21,
1122,3604,12340,-8484,30.93,-287,-306,-103,
1123,3584,12316,-8732,30.93,-341,-141,-14,
1124,3668,12204,-8432,30.93,-396,-228,-89,
1125,3888,12200,-8536,30.98,-322,-185,-13,
1126,3696,12276,-8676,30.79,-506,58,-189,
1127,3884,12204,-8452,30.98,-426,-95,-247,
1128,3712,12268,-8448,30.93,-596,-102,-319,
1129,3608,12344,-8572,30.98,-587,7,-331,
1130,3684,12292,-8620,30.98,-487,-95,-325,
1131,3688,12264,-8504,30.88,-478,-8,-242,
1132,3556,12416,-8420,30.84,-456,-245,-316,
1133,3612,12316,-8440,30.84,-242,-305,-46,
1134,3748,12340,-8572,30.84,-247,-173,-206,
1135,3712,12208,-8440,30.93,-229,-240,-98,
1136,3612,12328,-8444,30.93,-379,-363,-23,
1137,3588,12296,-8576,30.79,-283,-359,16,
1138,3548,12324,-8676,30.88,-380,-515,-460,
1139,3608,12368,-8504,30.88,-287,-370,11,
1140,3396,12340,-8416,30.93,-410,-355,-25,
1141,3756,12220,-8668,30.93,-259,-91,-16,
1142,3576,12352,-8608,30.88,-565,-322,-288,
1143,3564,12340,-8600,30.88,-317,-32,-192,
1144,3492,12336,-8412,30.88,-325,-177,-214,
1145,3584,12424,-8328,30.88,-459,-275,-162,
1146,3564,12324,-8632,30.88,-381,-226,-12,
1147,3516,12232,-8500,30.88,-309,-244,-167,
1148,3472,12284,-8436,30.88,-413,-166,-182,
1149,3416,12368,-8388,30.79,-393,-256,-132,
1150,3540,12312,-8492,30.93,-358,-250,-16,
1151,3500,12476,-8336,30.88,-415,-264,-250,
1152,3392,12304,-8372,30.93,-344,-211,-215,
1153,3484,12340,-8360,30.84,-318,-246,-178,
1154,3536,12260,-8728,30.84,-375,-187,-213,
1155,3440,12288,-8648,30.84,-506,-40,-488,
1156,3668,12400,-8592,30.84,-762,-231,-426,
1157,3244,12556,-8256,30.93,-1143,-240,-1016,
1158,3204,12788,-7896,30.93,-269,221,-803,
1159,3244,12944,-8356,30.93,-803,2,-807,
1160,3160,12684,-8228,30.88,-1399,-88,-1111,
1161,3116,13072,-8576,30.84,-1363,575,-1934,
1162,4784,13708,-6264,30.93,-1373,-3319,-2742,
1163,3744,9720,-6576,30.93,270,-4801,-747,
1164,3344,12920,-7580,30.93,-1806,-50ı                               ,,
Sample,aX,aY,az,Temp,gX,gY,gz                                                   ,
1,2900,15244,-3740,30.69,-343,-236,-183,
2,2880,15180,-3752,30.84,-386,-176,-71,
3,2840,15196,-3772,30.79,-295,-202,-149,
4,2916,15084,-3848,30.84,-250,-83,-168,
5,2864,15128,-3848,30.79,-365,-137,-289,
6,2832,15140,-3832,30.84,-155,-73,-105,
7,3092,15892,-4040,30.79,556,-189,-98,
8,2644,14540,-3984,30.74,1589,1649,1683,
9,3468,15116,-4332,30.79,2565,1829,1252,
10,3036,14284,-4160,30.84,3696,1559,2615,
11,4164,14360,-5320,30.84,6455,1021,1981,
12,4668,13376,-6044,30.84,5684,381,2709,
13,4712,13940,-7556,30.79,3441,-721,1492,
14,360,12240,-2500,30.79,4001,1068,3710,
15,4864,12244,-6940,30.84,4274,-873,2951,
16,7424,11976,-6960,30.84,2748,-4290,2522,
17,7748,10376,-7360,30.84,1072,-2568,-316,
18,5516,11952,-9604,30.84,-2431,-2574,-2162,
19,3872,12048,-7636,30.79,-2646,-843,-453,
20,4380,12604,-7444,30.88,124,-827,-411,
21,4568,12144,-8628,30.74,1177,-1540,-946,
22,3732,12236,-8380,30.74,786,1,-72,
23,4228,12156,-8596,30.84,-660,-153,-486,
24,4240,12444,-8464,30.79,-350,-919,-444,
25,4352,12044,-8156,30.79,-427,-830,-595,
26,4288,12140,-8576,30.79,-1168,-705,-785,
27,4332,12464,-8224,30.79,-73,245,-780,
28,3888,12376,-8628,30.84,-249,628,-455,
29,3940,12376,-8444,30.79,-783,109,-124,
30,3916,12432,-7920,30.79,-564,81,-227,
31,4076,12296,-8180,30.79,-309,-424,-259,
32,4044,12448,-8332,30.79,-280,-253,-16,
33,4124,12284,-8472,30.74,-227,-232,-268,
34,4080,12324,-8184,30.84,-643,-207,-214,
35,3976,12384,-8168,30.84,-658,-419,-241,
36,3896,12584,-8488,30.79,-710,-506,-289,
37,4052,12408,-8208,30.88,-754,-513,-131,
38,3980,12588,-8396,30.88,-1109,-751,-230,
39,3896,12380,-7992,30.79,-1289,-238,-368,
40,3880,12684,-8392,30.79,-795,-62,-845,
41,3896,12624,-8076,30.74,794,1749,-1251,
42,3788,12600,#NAME?,,,,,