24.0.00,-122,,,,,,,
550,6692,9540,-10092,31.68,-403,-12,-112,-128
549,6536,9620,-9724,31.68,-306,-187,-122,
550,6692,9540,-10092,31.68,-403,-12,,
Sample,aX,aY,az,Temp,gX,gY,gz                                                   ,
1,-6536,6604,-2284,31.64,-7460,-8629,-6694,
2,-5524,-736,-5520,31.73,32767,22883,-10328,
3,-1716,3804,-10332,31.73,32767,32767,5131,
4,-3856,-2352,-11656,31.64,3770,5601,-8227,
5,-444,3528,-16192,31.73,-4382,-1797,-11936,
6,3004,11416,-25212,31.73,-32768,1134,-26220,
7,3612,-72,-9332,31.68,-32768,8889,-27413,
8,-788,2092,-1448,31.64,32767,-32768,32491,
9,-9792,-3672,-8072,31.68,32767,-23212,23591,
10,1284,1888,-7524,31.59,32767,4282,10961,
11,3036,3712,-15492,31.73,14436,3363,499,
12,-5724,-2160,-17300,31.73,-4802,2878,-5979,
13,-1840,-4500,-13832,31.64,-894,1478,925,
14,-3400,-2384,-12948,31.78,-4068,6707,5929,
15,728,108,-16404,31.73,-4626,8511,4865,
16,4432,11416,-21104,31.73,-20656,6005,-3667,
17,-12312,5028,-11844,31.73,-24228,772,-10199,
18,-1072,5012,-13120,31.73,513,4353,-8192,
19,-3160,1328,-11588,31.68,-724,6767,1170,
20,768,-5436,-12992,31.73,-6020,-8027,6285,
21,1256,3780,-12048,31.64,-3510,1684,5677,
22,1652,7860,-12540,31.78,-5572,1239,10318,
23,1072,4864,-13408,31.64,-25272,7681,-28325,
24,-1028,9812,-14628,31.64,-6354,8569,-5273,
25,1952,7800,-6992,31.68,-5904,12050,-2651,
26,844,17700,-9848,31.73,-13164,-8661,-524,
27,1680,13944,-8404,31.68,385,6827,5132,
28,2308,15276,-11952,31.68,3118Ó                                       ,,,
Sample,aX,aY,az,Temp,gX,gY,gz                                                   ,
1,5316,15332,-900,31.64,-389,213,-65,
2,5332,15368,-692,31.73,-204,8,-58,
3,5260,15284,-1168,31.73,145,-226,80,
4,4732,15692,-572,31.64,98,-909,636,
5,5236,15120,-1516,31.64,-82,-1388,59,
6,6068,14488,-1716,31.68,-278,-223,721,
7,5952,14832,-1272,31.73,657,677,1412,
8,5808,15736,-1192,31.68,931,-145,694,
9,5032,16344,-1312,31.73,599,-1772,142,
10,5572,15312,-1864,31.73,-743,-2139,-894,
11,5688,14740,-1492,31.54,-1631,-936,-412,
12,5876,14240,-1440,31.59,-806,1122,324,
13,5700,14836,-1448,31.64,61,1724,875,
14,6016,15496,-1784,31.68,609,1224,-13,
15,5528,15828,-1304,31.59,-341,-539,-945,
16,5632,15452,-1868,31.59,-976,-1034,-1755,
17,5868,14456,-1936,31.73,-139,780,-393,
18,5308,14812,-1600,31.64,1273,1943,584,
19,5904,14824,-1632,31.78,849,1152,923,
20,6160,15468,-812,31.59,685,-356,-200,
21,6428,15572,-1388,31.73,562,-1652,-298,
22,5928,14884,-2528,31.64,658,-1584,305,
23,5412,14612,-2332,31.73,394,-607,499,
24,5388,14604,-1964,31.64,838,69,122,
25,5884,14712,-2552,31.78,302,11,288,
26,6180,14932,-2624,31.73,-107,-200,667,
27,6204,14852,-2592,31.64,-239,-446,315,
28,6136,14608,-2576,31.64,-452,-723,-188,
29,5964,14556,-2396,31.64,-370,-565,-352,
30,5808,14808,-2528,31.73,-206,-308,-444,
31,5868,14740,-2500,31.64,-385,-8,-542,
32,6088,14784,-2580,31.54,-658,62,-651,
33,5984,14908,-2644,31.68,-585,1,-587,
34,5740,14860,-2624,31.64,-417,58,-544,
35,5864,14832,-2592,31.73,-409,37,-376,
36,5688,14852,-2436,31.68,-381,-36,-192,
37,5804,14848,-2580,31.68,34,-22,-101,
38,5744,14896,-2624,31.73,-184,-288,-66,
39,5696,14808,-2588,31.64,-440,-666,178,
40,5840,14864,-2528,31.68,-535,-801,103,
41,5856,14680,-2424,31.68,-765,-985,187,
42,5804,14768,-2456,31.59,-492,-729,128,
43,5788,14632,-2464,31.59,-157,-465,72,
44,5860,14728,-2660,31.64,-63,-469,-33,
45,5912,14872,-2684,31.64,-71,-367,-136,
46,5820,14760,-2692,31.68,5,-174,-111,
47,5816,14724,-2620,31.64,100,109,-221,
48,5776,14712,-2724,31.68,107,121,-294,
49,5732,14720,-2720,31.68,137,306,-490,
50,5828,14724,-2928,31.73,-64,257,-463,
51,5808,14788,-2796,31.68,8,309,-491,
52,5748,14680,-2876,31.64,-31,161,-447,
53,5756,14672,-2920,31.64,-68,40,-296,
54,5556,14752,-3036,31.54,-35,25,-279,
55,5708,14760,-2956,31.59,-22,-78,-201,
56,5692,14716,-2952,31.64,-75,-140,-131,
57,5784,14656,-3008,31.73,-125,-307,-35,
58,5740,14592,-3204,31.68,-205,-427,15,
59,5748,14632,-3164,31.64,-186,-471,33,
60,5588,14608,-3068,31.54,-233,-564,7,
61,5760,14632,-3072,31.59,-260,-484,3,
62,5688,14676,-3052,31.64,-231,-406,36,
63,5776,14624,-3144,31.68,-252,-344,-135,
64,5648,14692,-3260,31.68,-201,-193,-157,
65,5836,14664,-3308,31.68,-322,-104,-206,
66,5652,14664,-3120,31.59,-288,62,-220,
67,5660,14540,-3036,31.73,-348,126,-354,
68,5684,14684,-3336,31.64,-342,153,-309,
69,5708,14744,-3196,31.64,-429,36,-270,
70,5628,14540,-3068,31.59,-344,80,-262,
71,5664,14700,-3312,31.68,-281,24,-250,
72,5624,14660,-3020,31.64,-246,-99,-184,
73,5656,14696,-3132,31.64,-256,-112,-103,
74,5680,14712,-3236,31.64,-258,-274,-55,
75,5696,14628,-3280,31.73,-248,-284,6,
76,5708,14632,-3184,31.59,-191,-381,-22,
77,5808,14520,-3260,31.64,-104,-352,-13,
78,5676,14640,-3292,31.64,-53,-296,-29,
79,5612,14624,-3332,31.68,-56,-269,-72,
80,5712,14588,-3356,31.68,-138,-217,-92,
81,5736,14628,-3492,31.59,-182,-121,-180,
82,5672,14524,-3568,31.59,-205,-59,-245,
83,5724,14516,-3476,31.68,-223,-50,-319,
84,5720,14512,-3456,31.73,-245,49,-240,
85,5656,14576,-3564,31.59,-347,-14,-339,
86,5740,14580,-3332,31.59,-338,-13,-350,
87,5632,14648,-3476,31.68,-300,-30,-287,
88,5560,14596,-3492,31.64,-328,-81,-271,
89,5520,14672,-3424,31.64,-325,-135,-221,
90,5720,14556,-3420,31.64,-323,-261,-217,
91,5640,14536,-3384,31.64,-301,-245,-138,
92,5604,14572,-3512,31.59,-270,-320,-141,
93,5596,14512,-3476,31.68,-255,-337,-54,
94,5580,14544,-3480,31.68,-257,-371,-42,
95,5512,14464,-3532,31.54,-223,-321,-18,
96,5548,14580,-3548,31.64,-306,-279,-47,
97,5580,14476,-3416,31.54,-298,-269,-79,
98,5632,14500,-3448,31.64,-316,-184,-129,
99,5628,14528,-3524,31.64,-383,-111,-175,
100,5664,14452,-3620,31.73,-385,-69,-175,
101,5568,14600,-3676,31.64,-369,-6,-214,
102,5656,14636,-3572,31.64,-379,-34,-213,
103,5536,14552,-3484,31.64,-383,-24,-196,
104,5516,14504,-3496,31.68,-425,-19,-199,
105,5556,14656,-3524,31.59,-325,-45,-241,
106,5612,14516,-3456,31.59,-359,-63,-159,
107,5588,14684,-3344,31.64,-339,-80,-126,
108,5556,14548,-3564,31.64,-246,-107,-104,
109,5564,14508,-3648,31.73,-180,-177,-52,
110,5620,14508,-3512,31.59,-250,-298,-52,
111,5604,14520,-3488,31.59,-262,-217,7,
112,5580,14492,-3420,31.64,-289,-280,-23,
113,5608,14560,-3480,31.54,-280,-253,-53,
114,5604,14548,-3652,31.64,-296,-202,-56,
115,5516,14632,-3624,31.59,-335,-124,-100,
116,5644,14564,-3532,31.68,-331,-96,-118,
117,5584,14468,-3588,31.68,-336,-5,-115,
118,5664,14460,-3588,31.59,-404,-25,-145,
119,5588,14464,-3548,31.59,-376,1,-156,
120,5632,14512,-3648,31.68,-388,-30,-140,
121,5716,14572,-3656,31.59,-381,-99,-176,
122,5660,14524,-3568,31.68,-411,-123,-89,
123,5632,14492,-3308,31.54,-340,-159,-139,
124,5664,14584,-3584,31.54,-336,-255,-136,
125,5764,14372,-3496,31.59,-275,-208,-159,
126,5644,14464,-3532,31.59,-274,-234,-156,
127,5680,14492,-3592,31.64,-154,-235,-147,
128,5660,14576,-3500,31.64,-75,24,-261,
129,5640,14472,-3628,31.64,-92,-209,-229,
130,5708,14580,-3804,31.64,-159,-125,-187,
131,5628,14452,-3684,31.64,-204,-144,-193,
132,5528,14420,-3696,31.68,-186,-102,-211,
133,5576,14492,-3820,31.64,-314,-84,-227,
134,5584,14516,-3716,31.64,-283,-113,-225,
135,5576,14512,-3576,31.64,-273,-92,-204,
136,5544,14436,-3740,31.64,-280,-101,-135,
137,5524,14472,-3836,31.68,-272,-113,-188,
138,5560,14440,-3672,31.64,-205,-84,-157,
139,5628,14508,-3808,31.54,-290,-94,-130,
140,5540,14464,-3800,31.64,-270,-171,-167,
141,5600,14512,-3712,31.59,-224,-165,-146,
142,5560,14368,-3848,31.64,-193,-199,-152,
143,5480,14400,-3860,31.64,-326,-283,-63,
144,5504,14552,-3836,31.54,-453,-383,15,
145,5660,14480,-3860,31.64,-479,-294,-22,
146,5524,14536,-3792,31.73,-663,-414,33,
147,5616,14460,-3764,31.64,-689,-403,48,
148,5520,14468,-3564,31.64,-572,-245,-54,
149,ı                                                                           ,,,,,,,
150,8896,11496,312,31.59,-1103,-2296,3166,
151,9164,10872,844,31.64,-1061,947,2510,
152,10596,12088,-268,31.59,-3127,-3913,1237,
153,10996,10820,-1380,31.54,-3293,-1399,3127,
154,12040,12144,-1208,31.54,-1175,-1791,1549,
155,11180,11272,-200,31.59,-864,2453,1329,
156,8720,11256,1012,31.59,-962,1056,3319,
157,10668,11528,308,31.54,-3523,-1619,1567,
158,11772,12236,436,31.64,-5539,-4538,3640,
159,11768,11620,112,31.64,-3322,-2686,2904,
160,11676,12192,-1484,31.64,-504,-1606,5350,
161,8804,13280,-1236,31.54,1378,390,6516,
162,9564,12172,-1404,31.54,-735,-5794,4856,
163,12580,11648,-588,31.54,-4963,-8589,-343,
164,12768,12680,-3228,31.59,2513,-3549,-3272,
165,11636,9864,-3956,31.59,5876,-291,-3779,
166,13264,10092,-4300,31.68,14181,4079,-3353,
167,10932,9236,-2700,31.59,5656,3091,-3423,
168,10236,6760,-3828,31.49,4424,477,-5227,
169,11528,5512,-2244,31.68,1173,-722,-2811,
170,11932,6648,-3140,31.64,-6905,-3928,1472,
171,13196,8152,-3084,31.64,-11234,-4868,3351,
172,18616,11848,-1840,31.64,-9980,-4185,2237,
173,12680,12896,780,31.59,-7085,-1213,6060,
174,10016,10976,2584,31.54,-6648,-3452,2783,
175,15048,11644,2400,31.59,-1769,-6356,-821,
176,16100,12656,-80,31.54,-4004,-5630,4049,
177,14332,11336,-1764,31.54,-5983,-2233,3045,
178,13872,11160,-1816,31.54,-7346,-5167,1562,
179,15316,10604,-1508,31.59,-5184,-8535,2536,
180,13016,9760,-2148,31.54,-3561,-7155,5386,
181,12140,10496,-2132,31.59,1736,-2126,2309,
182,14164,9496,-2124,31.54,-3386,-6118,1313,
183,13304,8968,-5108,31.54,-1843,572,5257,
184,10592,9336,-3636,31.64,-1000,3321,3052,
185,10976,8600,-1860,31.54,-6317,-3872,1425,
186,12152,11124,-4468,31.59,-3438,370,3321,
187,9872,11692,-6660,31.54,10643,12425,2570,
188,8816,10076,-4488,31.54,14256,13622,-4101,
189,11204,9972,-2552,31.54,14712,7419,-8493,
190,15412,12420,-204,31.49,12388,-1461,-10592,
191,12032,10840,3188,31.49,12712,-5727,-14979,
192,13880,11352,-2228,31.64,6084,-6134,-18151,
193,7912,10676,2624,31.54,-1664,4979,-19351,
194,13340,10384,-3936,31.68,2927,-6311,-9745,
195,8764,13300,-4696,31.45,-7552,-12304,-5687,
196,7372,9836,-3772,31.54,-9170,-7177,2844,
197,7828,9824,-6476,31.49,-9560,-878,4887,
198,7292,10600,-3564,31.59,-3678,3324,9805,
199,7360,18636,-5964,31.59,-763,3713,9316,
200,5760,23228,-9292,31.49,134,3846,3532,
201,3372,19120,-7692,31.59,-5492,-4447,4219,
202,632,13532,-3780,31.54,3611,3740,7667,
203,1072,12388,-4472,31.64,2273,14927,5323,
204,1496,12808,-2412,31.54,4387,16385,966,
205,8460,13088,-5492,31.54,6751,13081,1325,
206,19536,17920,-6516,31.59,13925,601,1897,
207,17212,15148,-5232,31.54,4367,-25207,-9295,
208,20492,-4004,2056,31.49,7039,-17336,-5415,
209,15100,2476,-2284,31.59,-25345,-9156,15804,
210,11992,9476,-3744,31.59,-17980,-9646,19731,
211,10616,15992,-4128,31.49,-9344,-3251,15136,
212,8692,16968,-8220,31.54,-5774,14411,20868,
213,4836,20148,-7412,31.64,6325,13098,13132,
214,9312,20556,-7664,31.49,924,11696,-1287,
215,12540,18788,-4112,31.49,15099,5892,-12985,
216,14272,20548,780,31.49,13779,-10684,-22857,
217,20140,19180,5400,31.49,8948,-10507,-23290,
218,14640,5072,5736,31.64,9960,-3260,-15425,
219,7448,3596,4212,31.54,-923,-8511,-15149,
220,13464,6260,-532,31.54,-9299,-11642,3776,
221,9396,12156,1276,31.49,-7094,-3035,3817,
222,11388,12476,288,31.54,-2436,-4840,9136,
223,12716,14568,-2432,31.45,-8498,-11432,7078,
224,11476,15824,-2260,31.64,-9562,-14509,19692,
225,9728,14056,-2548,31.54,-8894,-10420,20770,
226,10684,14704,-2692,31.54,181,525,16179,
227,7072,15820,-3136,31.54,2514,6792,13893,
228,7724,12292,-5784,31.59,845,13052,6970,
229,7808,10396,-4864,31.49,4982,11335,-292,
230,5636,10964,-1600,31.49,8041,10641,-10861,
231,12432,9984,-1864,31.49,15942,9621,-10791,
232,-3828,17724,10148,31.54,26681,-5058,-4134,
233,15128,14452,-2324,31.54,7201,-4893,-12424,
234,16308,18940,-3824,31.54,7567,-10095,-14564,
235,8664,13816,-652,31.54,467,-13311,-11225,
236,9508,10184,-2684,31.49,-6595,-10235,-11243,
237,8024,10472,-2628,31.49,2752,-244,-7159,
238,6864,11584,-4440,31.45,216,-386,-1200,
239,8084,11040,-4220,31.54,-3103,-2824,5447,
240,7020,9344,-2980,31.54,-6140,-3998,10274,
241,10352,9844,-3112,31.59,-2662,-2160,13092,
242,11868,14344,-3420,31.59,-2391,-971,21694,
243,12148,17296,-11320,31.45,-5636,11789,21418,
244,7644,17216,-7820,31.54,6085,16853,13866,
245,8672,13572,-7732,31.49,-6977,-3049,10437,
246,10572,9652,-5700,31.54,-902,-672,5686,
247,9888,10148,-5528,31.54,6484,4647,-326,
248,5296,9660,-3512,31.54,6882,8926,-141,
249,9780,12876,-3388,31.54,8198,5578,-9798,
250,13508,14064,-3076,31.49,10658,-3605,-16872,
251,16532,14480,-4888,31.45,10356,-2402,-24737,
252,21244,12544,-3436,31.45,7228,-8451,-24140,
253,11776,10636,-2232,31.45,-2021,-6501,-14062,
254,12744,8532,1660,31.49,-6954,-17648,-10779,
255,12832,7080,2396,31.49,1619,-13131,1062,
256,16392,9356,4136,31.45,-10954,-8028,12548,
257,15072,9680,-20,31.54,-4686,-7497,18470,
258,16176,20524,-4584,31.45,-3108,1050,28968,
259,11772,19084,-7272,31.45,-6561,10013,28895,
260,10372,20036,-4232,31.49,1678,3857,18903,
261,5412,14884,-3888,31.45,-10915,-1751,8785,
262,9616,12788,-2384,31.45,7531,-1933,2436,
263,9648,15812,-2204,31.45,-1107,7471,-5199,
264,11024,12924,-1632,31.45,1503,-4677,-15425,
265,13432,15140,-1104,31.54,8279,-3598,-15606,
266,23616,17620,-4844,31.54,12274,-5359,-24697,
267,16836,14872,-2004,31.49,1580,-2313,-24670,
268,14356,11860,356,31.49,9301,431,-18361,
269,10584,9344,-668,31.4,1929,-852,-9315,
270,8900,8748,-184,31.45,422,-816,-1223,
271,6696,10836,-616,31.45,-2809,-2419,6449,
272,8504,13284,-1612,31.49,-10947,-9129,12114,
273,10876,13288,-1000,31.49,2868,320,11765,
274,7116,19200,-4652,31.54,6725,7806,13382,
275,8236,17360,-3712,31.45,-9716,1997,20486,
276,8724,20096,-4104,31.45,872,6089,15053,
277,8484,8036,-6120,31.49,-5537,7464,9587,
278,11872,12728,-4452,31.49,359,9025,5932,
279,9232,11956,-2240,31.54,-2530,-1693,1326,
280,8120,12144,-3428,31.49,1448,2312,817,
281,7564,14292,-6372,31.49,6071,8147,-4174,
282,8644,20656,-4484,31.45,11413,4230,-10342,
283,18976,22724,-3360,31.54,3080,-17018,-26000,
284,21344,11268,-1248,31.59,-3951,-14857,-20328,
285,11536,9084,2552,31.45,5892,-5766,-18237,
286,12088,9188,-720,31.4,-504,-5843,-9312,
287,11332,8920,940,31.45,-1193,-7651,-1184,
288,11924,8816,-592,31.49,-4239,-10578,4989,
289,10480,9020,-424,31.49,1814,-882,11464,
290,9160,17748,-3592,31.4,-2433,-95,22419,
291,10696,22936,-7072,31.54,-9971,-219,31242,
292,6084,24616,-800,31.54,7863,7655,20381,
293,7456,18648,-4420,31.49,-5080,9182,9479,
294,6864,13312,-3696,31.54,2637,5658,-3123,
295,7592,11676,-3660,31.45,-302,3844,433,
296,6924,12112,-5156,31.54,1909,6891,848,
297,8380,15076,-3908,31.4,6722,6349,-2091,
298,14368,16180,-2260,31.45,11942,-4061,-12878,
299,14080,19452,276,31.49,11257,-11041,-18185,
300,13376,18964,-3848,31.4,18765,-5130,-30354,
301,16120,19608,-4596,31.45,8153,-2260,-28590,
302,4712,16844,-14692,31.54,32767,10480,-32768,
303,-1764,13356,-9640,31.59,29934,-25022,-13598,
304,3008,460,-14652,31.54,-32768,-32768,-7454,
305,3216,-9376,-10100,31.45,-32768,-26001,26544,
306,6692,-12460,-880,31.59,32767,-7634,3080,
307,-6160,2444,-17700,31.45,32767,32767,-9206,
308,13444,13192,-11156,31.54,-4188,29902,20407,
309,12028,21044,-20924,31.4,-32768,3095,32767,
310,14440,28680,-21204,31.4,2069,32767,31006,
311,-2096,22692,-13136,31.49,-4400,11465,7619,
312,17076,12540,-14952,31.4,-17097,-19533,7159,
313,9744,6460,-9476,31.45,-6688,4409,12783,
314,8624,8232,-9992,31.4,-4908,-4589,525,
315,9636,10948,-9292,31.49,-6347,842,-7143,
316,7816,7900,-9376,31.54,2473,3617,-4179,
317,10968,15020,-7324,31.45,3667,7198,-10663,
318,13128,19712,-984,31.45,-3745,-8625,-13499,
319,10724,16616,-2188,31.45,-6517,-9891,-20437,
320,14012,11552,-2200,31.49,1521,-6211,-15767,
321,12744,8776,-1296,31.4,2590,-6550,-8383,
322,9720,7212,-1936,31.35,2014,-3489,-2891,
323,12104,9172,-3424,31.59,-4898,-5487,4472,
324,10600,10756,-3444,31.45,-189,-540,9455,
325,8540,15900,-3948,31.4,-1431,740,15165,
326,8268,18556,-5936,31.35,-3205,-5187,19479,
327,6880,16280,-5528,31.35,-5978,-3524,17790,
328,9984,10612,-8160,31.35,4028,10612,11068,
329,4740,14616,-7536,31.49,2765,10699,4824,
330,9424,11144,-7520,31.45,940,6329,5546,
331,8988,10956,-5872,31.45,5214,8192,-1770,
332,10244,11092,-5880,31.4,5216,4527,-4991,
333,12252,11936,-4416,31.45,6353,3016,-8730,
334,9392,18312,-1864,31.54,-690,-3695,-14336,
335,31328,14116,-9892,31.4,2395,-8085,-20162,
336,19316,11792,-5504,31.49,-3902,-12702,-19286,
337,12176,9092,-3040,31.45,-1275,-8084,-13868,
338,10496,9276,-1612,31.45,-5083,-9266,-4938,
339,10244,8060,-2052,31.45,231,-1500,687,
340,12976,8408,-3380,31.45,1895,-1425,5258,
341,12212,10616,-4128,31.4,3184,869,10198,
342,9616,15916,-7120,31.54,1450,3086,18109,
343,11912,18212,-8188,31.4,-2498,1789,23009,
344,5704,20304,-5648,31.49,5242,12105,10010,
345,4904,15712,-7044,31.45,-3682,6414,7833,
346,7128,13072,-6708,31.45,-3888,2547,7256,
347,8336,11324,-5844,31.45,446,6560,1050,
348,9804,11208,-5636,31.45,1836,4602,1670,
349,9792,11400,-4996,31.49,5981,2199,1431,
350,10704,13976,-5484,31.4,10269,-3275,-10391,
351,11268,20184,-7256,31.54,5093,-13977,-20297,
352,15472,10272,-5344,31.45,-3783,-15515,-14500,
353,17420,9128,-224,31.4,-5863,-3494,-10411,
354,12040,9716,-1416,31.4,-5370,3273,-8957,
355,9528,11196,-780,31.4,-2310,-3718,-2970,
356,10256,11028,-1356,31.45,-1969,-8092,1080,
357,7636,10852,-2280,31.45,1402,-920,4989,
358,9492,11336,-3612,31.35,6271,1703,8274,
359,12680,14244,-10620,31.49,793,-426,10506,
360,2340,21968,-8236,31.54,-11658,-3592,23897,
361,8288,14300,-4872,31.54,-2348,-1850,15786,
362,9604,13092,-6884,31.49,1261,5322,11032,
363,7964,16088,-6380,31.45,2121,1254,9628,
364,7988,10964,-5852,31.35,-1525,-1665,7262,
365,6996,11700,-5380,31.54,2767,1934,2112,
366,8212,13736,-5696,31.45,6307,6609,-2233,
367,9232,12532,-6164,31.4,7547,6417,-10697,
368,12668,16464,-7508,31.54,9091,4615,-18208,
369,15312,17472,-4508,31.54,9775,-540,-23285,
370,12592,12676,-3140,31.45,-810,-6860,-16307,
371,13252,11264,704,31.45,-6033,-12887,-14883,
372,13552,7080,-932,31.45,-4848,-9987,-8208,
373,8384,7900,-1160,31.31,-1044,-7057,-768,
374,11128,8972,-2988,31.45,-2828,-4154,6069,
375,9028,10076,-1920,31.45,-385,-1980,12034,
376,13748,14128,-6240,31.4,-966,-1769,20518,
377,10108,21084,-8520,31.49,2152,3013,25637,
378,6896,17080,-5844,31.45,5293,4838,14980,
379,9040,13396,-5528,31.4,-1023,5551,7687,
380,10464,13368,-5480,31.45,-1906,1338,7707,
381,9264,12184,-5988,31.4,-1608,3810,5129,
382,8140,10604,-4904,31.54,-1127,1751,-935,
383,9956,10444,-3636,31.4,-1020,-513,-3272,
384,11716,12088,-4100,31.54,5406,-2985,-6122,
385,11868,14148,-3364,31.35,3863,4283,-8260,
386,6744,16360,-6352,31.45,8293,-1818,-21726,
387,15280,14232,-4788,31.49,5745,-3574,-21838,
388,12676,10768,-5136,31.49,-4015,-6153,-14787,
389,12872,7584,-40,31.45,-6126,-6361,-10588,
390,10176,8304,-1940,31.35,633,-3576,-2867,
391,7936,10256,-1672,31.45,3278,-3348,4181,
392,11588,11300,-3248,31.4,-2858,-5543,8174,
393,10684,11004,-2500,31.4,-251,-1507,13755,
394,9024,13056,-5884,31.4,1958,3294,15044,
395,14524,15296,-7968,31.35,-826,416,19554,
396,7628,15896,-5780,31.45,331,3930,16558,
397,9308,12336,-7460,31.49,-1760,3558,8542,
398,9320,12512,-5964,31.45,507,1135,10470,
399,9416,11360,-6228,31.45,-1494,-98,6965,
400,10124,9952,-5288,31.49,1607,-821,-1344,
401,11128,10524,-4876,31.45,2539,1859,-2584,
402,11228,11572,-4844,31.4,1971,-1722,-7805,
403,13708,12436,-5000,31.4,206,-2165,-14340,
404,19236,12132,-5956,31.31,1627,1924,-22749,
405,20708,9448,-5784,31.35,2513,-898,-20644,
406,10728,10588,-2720,31.45,-3601,-2931,-11890,
407,12016,10032,-2344,31.45,-2499,-4258,-10690,
408,9544,10240,-1792,31.31,740,-3782,-3312,
409,9680,10084,-2936,31.45,-1997,-3502,2229,
410,9716,9348,-2596,31.49,-1543,-1551,6642,
411,8872,10920,-4608,31.35,139,698,13626,
412,11840,14124,-7400,31.45,-353,5191,17171,
413,11696,16056,-7388,31.45,-193,1405,16675,
414,9936,11908,-4712,31.4,-4199,-2954,15247,
415,11176,10984,-5836,31.4,-845,-1383,9522,
416,11856,10884,-5524,31.35,-975,-940,8670,
417,10284,10640,-5064,31.31,2533,2392,5590,
418,9880,11156,-5916,31.35,3633,3728,1366,
419,9532,12528,-6772,31.45,3370,5759,-1522,
420,9320,11604,-5332,31.31,4088,6135,-5160,
421,10812,12392,-4992,31.35,5283,3916,-10822,
422,13084,13660,-5060,31.4,6134,-1538,-16968,
423,12016,13444,-6264,31.35,7161,1754,-19476,
424,12568,12852,-3660,31.4,1725,-1233,-16655,
425,13896,11148,-3004,31.4,-2436,-8158,-13664,
426,14820,10016,-1932,31.54,-215,-11731,-7916,
427,12416,7956,-1884,31.35,-1726,-6774,-2294,
428,10788,9204,-2876,31.35,-2176,-3042,4074,
429,10860,11076,-3032,31.4,-2697,-2307,8078,
430,11516,13800,-3736,31.4,-6179,-4426,13102,
431,10824,15416,-5604,31.31,-5209,-6188,13598,
432,8608,15376,-4700,31.4,-2392,-5133,15556,
433,8000,14952,-6516,31.35,3501,6658,11866,
434,6112,15480,-7748,31.31,5562,11484,9851,
435,4788,14512,-7712,31.35,5332,11677,5125,
436,7264,12428,-5488,31.4,8670,9478,1473,
437,9624,11524,-4960,31.4,5901,3376,-3101,
438,11852,11952,-4572,31.35,7696,-1224,-8502,
439,15064,13240,-3656,31.35,8398,-9038,-12165,
440,16624,11964,-2952,31.45,-3344,-7475,-15121,
441,12284,7460,-2488,31.31,-2100,-5442,-12874,
442,13808,8788,-1504,31.4,-7439,540,-8626,
443,13332,9092,-1396,31.35,-2599,-6295,-3380,
444,12144,10104,-1864,31.4,-127,-6418,-286,
445,11920,10520,-4068,31.35,975,-1265,2302,
446,11076,11856,-4080,31.4,404,-1089,5662,
447,10152,12184,-4164,31.35,-1213,425,7537,
448,10656,12476,-3812,31.4,-3119,-1531,8162,
449,11612,12628,-3360,31.31,-3002,-3965,9750,
450,8712,11296,-3812,31.4,564,1645,10219,
451,7380,13024,-5776,31.4,2747,5207,8207,
452,9212,14504,-6960,31.35,-302,7867,6584,
453,6476,11904,-7116,31.35,1836,3881,-1986,
454,9364,10920,-7332,31.4,2947,3864,-2183,
455,10736,11780,-5512,31.35,1814,-4508,-3783,
456,10776,11464,-4748,31.35,-1125,-9521,-9681,
457,15004,12460,-4972,31.35,-2950,-6355,-13630,
458,13860,17632,-6984,31.35,-9398,-6235,-13737,
459,12896,8484,-3932,31.4,-7315,-3710,-11524,
460,10404,9476,-1984,31.35,-2848,-4456,-8961,
461,9464,10316,-1904,31.31,-2275,-4618,-652,
462,8492,9932,-2904,31.35,3821,1329,3334,
463,9008,11308,-3156,31.31,2262,3224,6408,
464,10700,13540,-3580,31.35,2794,4938,9538,
465,10576,14576,-2804,31.35,-312,3304,13210,
466,11132,14300,-2800,31.35,-1827,-2161,13250,
467,9488,13044,-4452,31.35,198,-149,13240,
468,8144,12868,-5540,31.4,-725,3994,9827,
469,8672,12676,-5488,31.21,-1292,4989,6165,
470,10944,12080,-5448,31.35,-1286,1831,2181,
471,11740,9856,-5316,31.4,-234,1657,-1617,
472,11540,9276,-3812,31.35,2685,1078,-4447,
473,10824,11304,-4632,31.4,10019,1407,-5878,
474,10976,15224,-5488,31.31,10138,-1585,-13006,
475,11724,11176,-6940,31.35,3959,-3922,-13878,
476,10480,13532,-5720,31.35,-2352,2532,-15559,
477,11908,11644,-3024,31.35,-7616,-6460,-13510,
478,13468,11736,-1508,31.45,-2485,-10636,-8489,
479,10144,10088,-992,31.31,-2021,-8044,-3414,
480,9684,10664,-3724,31.31,-2965,-3123,2329,
481,8972,11180,-3944,31.35,-4286,-594,7277,
482,8376,13588,-3496,31.4,-1833,-505,9772,
483,10148,14204,-3900,31.35,-1112,-960,11862,
484,9508,13724,-3824,31.26,328,477,13489,
485,7980,14788,-5512,31.26,1225,1541,11315,
486,7796,14284,-5084,31.35,2070,2744,8238,
487,9664,12992,-4992,31.31,220,623,6543,
488,9108,12440,-4800,31.31,1524,1628,4648,
489,9136,13300,-5168,31.31,1825,3508,518,
490,8088,13184,-5468,31.35,6158,5246,-3959,
491,7272,12656,-5072,31.35,7535,2135,-8483,
492,4656,12384,-2840,31.31,4415,-3732,-11376,
493,13412,13232,-6528,31.4,-1907,2395,-19191,
494,18564,18296,-8260,31.31,-3441,1055,-14186,
495,13060,15012,-3476,31.35,-126,-3914,-13920,
496,10128,10080,-2848,31.31,-2123,-9325,-13082,
497,8460,8288,-2384,31.4,992,-4973,-5576,
498,7932,9760,-2144,31.31,2933,-2658,3669,
499,6076,11072,-2036,31.4,1073,-2357,9512,
500,5532,11492,-1516,31.45,-819,-2954,11539,
501,9488,14276,-2152,31.35,-7205,-6842,12463,
502,14156,16744,-4752,31.21,-2206,-4420,13055,
503,10736,15120,-7012,31.4,8654,8312,12832,
504,3960,13548,-8048,31.31,5702,12587,9080,
505,5344,15256,-8040,31.26,1211,8437,6232,
506,7600,13764,-5460,31.26,-1376,4576,3062,
507,7648,9672,-6028,31.31,-1283,251,-1426,
508,9892,11020,-6292,31.31,1539,-1713,-2894,
509,10784,14140,-4840,31.26,-685,-9559,-10232,
510,13764,14384,-5800,31.4,-4011,-3520,-13223,
511,14812,11664,-4292,31.31,-4609,-1346,-13069,
512,10628,7688,-2292,31.31,-5797,-5339,-6926,
513,13440,9664,-1916,31.31,-1377,-8043,-1869,
514,12588,11856,-2276,31.31,-2953,-7671,3644,
515,11180,10612,-3296,31.35,880,-2145,7333,
516,8824,11768,-2464,31.31,-13,902,8548,
517,8560,12576,-3696,31.21,2447,2746,8601,
518,12368,16104,-3852,31.4,-632,-4879,8371,
519,12344,12632,-4304,31.26,-469,-2225,9308,
520,7688,10144,-6432,31.26,2004,9633,8724,
521,7756,13984,-7376,31.35,4511,13147,6006,
522,7248,15792,-7076,31.26,4002,5865,276,
523,7620,11568,-6356,31.26,6666,6304,-2701,
524,9016,13956,-4396,31.31,4906,-2895,-8670,
525,12304,12132,-3788,31.31,571,-5582,-15298,
526,16384,12456,-4468,31.35,114,-8524,-18073,
527,14828,14756,-4004,31.35,1384,-3129,-15416,
528,12580,11160,-4880,31.26,-2168,-1832,-11544,
529,9084,10184,-3696,31.45,478,-2454,-8926,
530,8760,9532,-3868,31.31,-1190,-6011,-1420,
531,9600,9936,-5132,31.26,2800,-6074,2209,
532,7488,11896,-5148,31.31,-2804,-3083,8528,
533,8216,12812,-3396,31.26,-7176,-2191,12946,
534,10480,14704,-4252,31.35,-110,2996,12559,
535,11704,18528,-4556,31.26,-218,4335,14955,
536,6628,15908,-4744,31.35,-935,5617,11824,
537,6652,13084,-7032,31.4,972,9593,6845,
538,5704,15676,-7400,31.4,2356,5124,6918,
539,6980,13460,-5620,31.21,-867,1522,3316,
540,8692,11936,-4700,31.26,1582,37,175,
541,9996,11428,-4856,31.31,2779,-4431,-3071,
542,10344,14352,-4444,31.26,-2390,1263,-6277,
543,19240,4068,-3556,31.31,4426,1797,-12921,
544,13004,11020,-5940,31.35,5448,-1728,-14091,
545,13348,11764,-5784,31.26,2453,-5784,-9538,
546,10876,11756,-3720,31.35,82,-1680,-7330,
547,11960,11812,-3112,31.21,-3894,-4263,-6274,
548,10744,10316,-1084,31.21,-3572,-6540,-3738,
549,9712,11312,-2352,31.21,-3199,-5627,-1529,
550,9320,11112,-2316,31.26,-4510,-4137,2377,
551,10412,12384,-3140,31.31,-4564,-3820,5510,
552,8392,12580,-3100,31.21,-2868,-4140,7457,
553,10276,14064,-3544,31.31,-2937,-5834,9615,
554,8748,13560,-4524,31.26,-1105,-2805,11051,
555,7520,14008,-3784,31.35,1627,6916,8148,
556,7212,15120,-6096,31.35,2516,5381,9247,
557,7364,13196,-6032,31.26,1806,-548,7325,
558,6604,13444,-5684,31.31,3081,2675,1377,
559,7112,13376,-5480,31.21,2626,771,-3440,
560,8476,12644,-4304,31.26,-106,1413,-3953,
561,9820,12984,-3076,31.21,-2470,4112,-6654,
562,14084,14568,-3296,31.26,1627,8285,-14150,
563,15284,14076,-4308,31.21,3553,-34,-12771,
564,7556,11560,-1948,31.31,-3382,-2169,-7114,
565,14008,8000,-1696,31.26,-1351,-2113,-6935,
566,12020,12184,-2500,31.26,2026,536,-4067,
567,10356,11320,-2064,31.31,732,-1067,-1591,
568,10780,11088,-2484,31.26,700,-1913,2232,
569,12000,12248,-2936,31.31,833,-2356,4589,
570,10888,12388,-2836,31.31,-261,-1451,6165,
571,8652,14072,-2920,31.26,-708,-1657,6926,
572,10644,13960,-4820,31.31,-2670,-2254,8982,
573,9796,13496,-4860,31.35,-563,-481,11148,
574,6968,12580,-4976,31.26,-1008,2625,6911,
575,8088,12696,-5584,31.26,-550,2313,3138,
576,8448,13088,-6100,31.21,-789,1098,4353,
577,7528,11336,-5312,31.21,1963,-117,321,
578,8016,11808,-5352,31.31,3453,-63,-3070,
579,8176,12248,-5848,31.17,5799,3182,-5638,
580,10824,10380,-8664,31.26,3042,3792,-12632,
581,13588,14804,-5572,31.26,6076,2471,-11102,
582,11968,13144,-4596,31.31,4095,-260,-11329,
583,9132,10080,-2340,31.31,-2388,-4940,-11475,
584,13536,9708,-3456,31.21,-1838,-3934,-6053,
585,9928,10352,-2140,31.21,-39,-2032,1255,
586,9692,10428,-2076,31.26,-4128,-5988,3650,
587,11716,10588,-4056,31.21,-2129,102,4526,
588,10788,12012,-5112,31.26,-1158,1079,9565,
589,9052,14388,-4996,31.26,-4485,-201,10731,
590,11224,14112,-4616,31.26,-5833,-2703,10408,
591,9788,13708,-4208,31.26,-3119,984,9012,
592,8060,11700,-4228,31.26,-1112,4712,5903,
593,8952,12184,-5552,31.21,297,4266,3752,
594,9396,12608,-5048,31.31,1616,1028,3917,
595,9744,10760,-5496,31.26,1199,-273,-1460,
596,9680,10688,-5408,31.21,3433,-541,-3550,
597,9272,12148,-4992,31.31,4537,-1527,-4154,
598,11188,11956,-5456,31.26,3652,880,-8179,
599,10460,13604,-5172,31.26,2648,3445,-13225,
600,10468,13512,-5372,31.31,2700,-372,-14244,
601,10616,11016,-3628,31.31,-2156,-5066,-9895,
602,14180,10804,-3064,31.21,-4439,-6613,-4420,
603,9708,9880,-1880,31.21,20,-1492,-515,
604,9476,10316,-2168,31.17,-1873,-611,3227,
605,10340,12200,-3424,31.17,-757,979,5389,
606,9888,13072,-2924,31.26,-3766,-973,7449,
607,9528,12692,-3840,31.21,-3966,-1737,8420,
608,12084,12556,-4756,31.17,-4021,-3423,10000,
609,11548,13560,-4208,31.26,-1920,-3064,12821,
610,8716,12788,-4616,31.26,-1410,3308,7989,
611,9428,13356,-4804,31.17,-1749,2468,3842,
612,9324,12660,-4936,31.21,-1865,-582,2818,
613,8388,12192,-4256,31.35,6,-1876,-1570,
614,7984,11656,-4552,31.26,2763,477,-5009,
615,7848,12572,-5428,31.21,5078,4427,-5553,
616,9108,13448,-4664,31.21,5415,3937,-6102,
617,13432,14796,-5000,31.26,3035,2256,-11563,
618,13884,13800,-4296,31.26,-1115,-4079,-12320,
619,11636,11036,-2252,31.17,-2347,-5994,-12447,
620,12804,11148,-2840,31.31,-4597,-5968,-8383,
621,10868,10616,-1796,31.21,1347,-1482,-3628,
622,8436,9956,-1748,31.21,-62,-1185,-112,
623,9020,10632,-2880,31.21,-1144,-2277,4270,
624,10908,13052,-3840,31.17,-550,-2788,7942,
625,9628,13184,-4016,31.21,-635,-1090,9894,
626,6672,16696,-4680,31.26,58,-5080,8670,
627,7252,15464,-4220,31.26,-4864,-5175,11264,
628,7744,12144,-5008,31.17,958,2609,5595,
629,7016,12980,-5936,31.26,1338,4750,4752,
630,7368,13772,-6120,31.26,749,2913,4691,
631,7312,12272,-4804,31.17,-608,1935,1166,
632,8664,11524,-5232,31.21,3991,6227,-2046,
633,7812,12680,-6208,31.26,5740,3535,-4544,
634,9172,12776,-6328,31.21,3764,-1959,-8246,
635,9344,16160,-4428,31.26,-5118,-7383,-9534,
636,14624,15032,-4296,31.26,-3628,1025,-14527,
637,9440,12088,-1552,31.17,-5033,-2843,-12097,
638,11076,11220,-2656,31.26,-5151,-4029,-10048,
639,8964,11728,-1464,31.26,-60,-2874,-3232,
640,7696,12532,-1748,31.26,-1158,-3540,1915,
641,8988,12796,-2276,31.17,-2367,-1952,3423,
642,9024,12728,-2272,31.12,-527,-262,5713,
643,7440,12720,-2468,31.26,2922,2255,8151,
644,7116,15272,-2112,31.17,-1562,-2318,10775,
645,10704,14884,-3988,31.26,-399,-1253,11755,
646,6672,13984,-2876,31.21,-1396,-1142,6369,
647,10172,13184,-5320,31.17,2919,5784,4639,
648,9172,13676,-4544,31.21,3241,6406,4904,
649,6908,13448,-4392,31.26,1424,1036,3665,
650,7712,13600,-4764,31.26,5752,945,-123,
651,7828,15024,-4436,31.17,5829,2446,-2043,
652,13296,11272,-7200,31.12,2737,2948,-10776,
653,6344,14364,-4268,31.21,3730,4092,-9887,
654,14612,14632,-2160,31.17,988,-6290,-11262,
655,12288,11016,-3816,31.21,-1961,-6577,-8617,
656,13644,9088,-2736,31.17,-3026,-8321,-6267,
657,9484,10172,-1948,31.21,-1066,-3894,349,
658,9096,9668,-3020,31.17,-1075,600,4424,
659,9148,10864,-2584,31.17,1844,2955,5306,
660,10484,13096,-3816,31.17,2500,349,9769,
661,9372,13108,-4192,31.21,743,453,10827,
662,10892,15128,-5808,31.21,-2041,-1887,10625,
663,7960,13716,-4352,31.21,-6060,-3907,11184,
664,10084,10500,-6156,31.17,-2174,3396,4878,
665,9488,13704,-6852,31.26,6159,8164,659,
666,8652,11508,-6516,31.21,-982,-3191,1397,
667,9536,10192,-4980,31.26,715,-6965,-3193,
668,9968,11620,-5840,31.21,1891,-2505,-6921,
669,10776,11056,-6920,31.26,3141,5844,-11994,
670,9536,11168,-5348,31.17,6521,8840,-11422,
671,13360,11180,-5736,31.21,754,3696,-12377,
672,14140,12100,-7524,31.17,6634,3893,-11710,
673,6276,12208,-4304,31.12,3310,189,-9279,
674,9428,10260,-4540,31.17,-5231,-3830,-8234,
675,9240,11816,-4328,31.21,2543,2231,-551,
676,6588,12568,-3452,31.12,-282,349,2799,
677,8484,11276,-3944,31.21,-4655,-668,2534,
678,10400,11656,-4832,31.07,-2097,-184,4141,
679,8188,12572,-3460,31.12,-2671,-2518,7453,
680,11692,12080,-3992,31.17,-2421,-4716,9541,
681,10960,11776,-3448,31.26,-3020,-5397,11557,
682,9584,13684,-4808,31.26,-1529,-2077,12596,
683,9088,12952,-6308,31.17,-3937,-948,8937,
684,8268,13888,-8440,31.17,2196,1730,5456,
685,7736,13124,-6220,31.17,-496,-327,3928,
686,8160,11964,-5844,31.12,-1854,-1175,-1964,
687,9232,11736,-5776,31.17,220,200,-5156,
688,9088,12360,-5772,31.17,602,2225,-5527,
689,9768,12032,-5520,31.17,-28,2576,-8511,
690,12624,12380,-5068,31.07,1852,3572,-10309,
691,11976,13140,-5196,31.26,7279,5324,-11651,
692,10280,13220,-4464,31.12,4732,2936,-12771,
693,10108,11484,-3116,31.21,-3784,-5962,-10252,
694,10896,11028,-3116,31.12,-4763,-6827,-3583,
695,7816,10960,-1660,31.21,-3038,-6398,305,
696,8372,9652,-2528,31.17,-2250,-2926,3147,
697,8824,11456,-3664,31.21,597,419,6910,
698,9768,13720,-4172,31.17,-197,-1107,10500,
699,9600,13492,-4308,31.26,-3052,-4258,11466,
700,11720,15104,-4740,31.12,-6801,-9407,12676,
701,8276,13960,-3304,31.21,-4442,-3574,11763,
702,8136,12564,-5044,31.21,626,5205,5496,
703,7388,14220,-6420,31.21,3876,4575,2150,
704,6532,12812,-5664,31.12,-693,-1595,3561,
705,8292,11860,-5252,31.17,-19,-2953,-1745,
706,8400,12080,-4440,31.12,687,-464,-4505,
707,8872,13380,-3704,31.07,1610,624,-6269,
708,9232,13392,-2972,31.17,302,2177,-7730,
709,11452,14392,-4456,31.12,463,3384,-10100,
710,12756,14804,-5020,31.17,-3608,-5207,-10570,
711,11420,13728,-5288,31.26,-3389,-8865,-10589,
712,10408,9956,-4488,31.17,-3483,-2648,-10868,
713,8896,11868,-5384,31.17,670,1183,-5975,
714,6240,10188,-6384,31.21,-1287,6179,-551,
715,6904,10304,-5560,31.12,497,6520,3805,
716,7052,13032,-5788,31.21,2899,7183,5731,
717,7972,15064,-4996,31.17,66,3458,9141,
718,5776,17516,-4460,31.21,2238,4758,9229,
719,7172,16868,-4468,31.21,-3337,-5315,2364,
720,10824,12360,-2244,31.21,3295,-3748,4350,
721,8668,12516,-3032,31.17,3719,3030,6588,
722,7804,12608,-5084,31.21,5326,5141,5207,
723,6904,14496,-6300,31.21,3638,7550,3943,
724,7268,11112,-8120,31.21,-13,-164,924,
725,8920,11924,-6004,31.12,1266,4165,-3450,
726,424,17844,-3176,31.17,6097,3411,-3952,
727,9044,12304,-5220,31.17,2847,131,-7885,
728,9784,11432,-3548,31.17,-1310,-3994,-9581,
729,14360,13304,-4600,31.17,-3151,-3832,-8498,
730,9864,12292,-2932,31.12,-933,-4227,-5626,
731,10020,12972,-4164,31.17,-5630,-8447,-6844,
732,10508,11036,-2992,31.17,-3043,-5071,-2273,
733,7872,10856,-3536,31.07,-1008,-1437,1110,
734,6860,11732,-3700,31.21,-687,-887,3898,
735,7608,12668,-4560,31.17,-412,-519,4665,
736,7392,13588,-4532,31.17,15,-2049,6310,
737,11936,13872,-4684,31.07,-210,-2582,9853,
738,8324,14520,-3120,31.21,-1714,-314,12662,
739,7404,13816,-5492,31.17,-3196,2571,5829,
740,6220,14672,-7932,31.21,-91,3581,4769,
741,7084,13548,-5288,31.07,-3118,-3061,4150,
742,8884,11568,-4572,31.17,-655,-1947,390,
743,9180,11912,-5200,31.26,1595,105,-4019,
744,7820,11568,-5220,31.12,1456,2456,-2218,
745,7352,12224,-5352,31.17,4109,5437,-3363,
746,7944,12584,-5440,31.17,3534,3698,-3847,
747,11804,14620,-5156,31.12,1841,-152,-7292,
748,10232,14756,-4848,31.07,4483,464,-9591,
749,10912,13660,-4508,31.21,1518,-2369,-9637,
750,10640,11332,-3744,31.17,-1408,-3410,-5281,
751,8744,9632,-2932,31.17,-1647,-1744,-3069,
752,9784,9920,-4076,31.12,313,360,285,
753,10320,11172,-4076,31.07,-1188,-2103,4447,
754,10604,11540,-3456,31.12,-3127,-3766,8038,
755,10060,11604,-3748,31.12,-2289,-2110,9509,
756,11456,13720,-4844,31.17,-5327,-4656,12800,
757,9400,14756,-5764,31.12,-4670,-414,13640,
758,7152,14532,-6312,31.17,745,5746,7085,
759,7348,13940,-7900,31.12,2263,7016,2440,
760,7320,12332,-5520,31.07,-1553,-930,1849,
761,8540,11532,-5432,31.07,952,-947,-2938,
762,8792,12200,-6128,31.02,5995,3745,-5764,
763,8404,13792,-4528,31.12,7898,3400,-8241,
764,14472,13044,-5156,31.17,5453,1807,-9270,
765,16584,12772,-6216,31.21,3513,1885,-12823,
766,10548,11696,-4684,31.12,725,-3632,-9833,
767,10840,10712,-3032,31.07,309,-5673,-9489,
768,11112,9744,-2292,31.12,-4661,-8298,-3441,
769,8636,8396,-2104,31.12,-3963,-5397,749,
770,9408,10040,-3224,31.12,-3993,-2993,4974,
771,9236,11516,-2808,31.26,-2673,-3379,8305,
772,8784,12628,-3424,31.12,-2231,-2816,11255,
773,8612,15184,-4732,31.12,-2166,-2374,11411,
774,11616,17144,-7880,31.07,-2720,1920,12758,
775,6480,14096,-5164,31.17,-1932,2321,8296,
776,7772,13520,-6424,31.21,354,5166,3418,
777,7512,13728,-5752,31.12,651,-582,3999,
778,8588,12380,-5512,31.07,614,-3060,-1680,
779,8120,12652,-5704,31.12,2571,1667,-4750,
780,9208,13380,-5684,31.17,4974,1478,-7957,
781,11380,13144,-5096,31.17,1114,2805,-8189,
782,14952,13060,-5752,31.07,-721,547,-12175,
783,13128,13324,-4288,31.12,250,-1569,-11016,
784,8904,11252,-2468,31.07,214,-3724,-8597,
785,10180,10716,-2796,31.12,-1247,-3744,-7532,
786,8236,10640,-2372,31.12,-136,-270,-1563,
787,7336,10032,-2988,31.17,-2099,2,2568,
788,8348,11248,-4092,31.12,-1738,416,6053,
789,8196,12116,-5200,31.12,-647,658,7797,
790,8920,13520,-6464,31.12,-2172,35,7160,
791,10436,13892,-5724,31.12,-1506,-2692,8725,
792,9120,14544,-4872,31.07,-3750,-3970,9595,
793,9752,12076,-5060,31.12,-119,1026,6554,
794,9476,12520,-5604,31.17,1151,1827,4688,
795,7948,12320,-4924,31.07,1052,-23,3230,
796,8424,13876,-5512,31.17,793,-1949,845,
797,9072,13004,-6016,31.17,841,-7,-3000,
798,7592,12128,-5012,31.21,349,5149,-6356,
799,9804,14220,-5488,31.12,-102,6337,-8183,
800,12892,14568,-4840,31.17,2292,-507,-9543,
801,9804,12636,-2992,31.12,4543,592,-10229,
802,10896,10456,-3280,31.17,2825,-764,-9956,
803,10368,10328,-2676,31.12,705,-3830,-3944,
804,9452,10172,-2780,31.07,-305,-2223,108,
805,10020,10824,-3728,31.07,126,-605,3219,
806,9072,11700,-4608,31.21,162,1527,3984,
807,9096,11260,-4456,31.12,-3022,-414,6151,
808,8792,11828,-4900,31.02,-2802,-219,6121,
809,11348,14808,-6436,31.07,-1314,-2542,7843,
810,7804,13372,-5516,31.17,-4736,-2652,10544,
811,9108,12348,-6336,31.12,-1835,1991,4939,
812,8496,13048,-6688,31.07,2538,3130,2713,
813,8028,12572,-5860,31.17,-605,-1747,2039,
814,9304,12284,-4464,31.12,565,1656,-1035,
815,8520,13672,-5320,31.12,1113,114,-6409,
816,9944,13076,-5708,31.12,1322,4975,-7198,
817,12324,14292,-5872,30.98,2601,3845,-10582,
818,12232,12376,-4656,31.21,2013,1655,-11005,
819,11560,10836,-3280,31.17,2229,-2051,-10097,
820,10536,9984,-3452,31.07,-637,-2450,-6295,
821,9172,9712,-2900,31.12,-653,-1410,-969,
822,8316,10848,-3140,31.07,-520,-571,3573,
823,7880,12076,-3948,31.07,-1450,-679,5689,
824,9868,12168,-4360,31.07,-1910,-932,5972,
825,8956,12120,-4604,31.12,-1284,535,5913,
826,9944,12548,-5084,31.02,-2332,-470,6843,
827,9868,13232,-5072,31.07,-2044,-459,9217,
828,9348,12372,-5412,31.02,-1626,424,6680,
829,10400,13032,-6116,31.12,-521,408,3943,
830,8668,13076,-4728,31.12,686,-134,3398,
831,9116,12336,-5232,31.12,603,-2826,-176,
832,9292,12688,-4792,31.12,-254,-237,-2350,
833,9380,13020,-4364,31.17,42,1259,-3752,
834,9420,13068,-4884,31.07,647,2086,-6314,
835,9752,12500,-5232,31.07,1235,2868,-8604,
836,9144,14040,-6112,31.12,45,1862,-10733,
837,10180,12040,-5120,31.12,1104,837,-8996,
838,8912,11416,-4104,31.07,786,950,-7339,
839,10220,11488,-3084,30.98,15,-1425,-4938,
840,8768,10872,-2372,31.02,-1112,-1427,-993,
841,8584,11532,-3144,31.26,-353,-298,1923,
842,9076,12348,-3788,31.07,-256,-286,4359,
843,8664,12608,-3088,31.21,-793,-1333,5164,
844,9312,11800,-3728,31.12,-1467,-1621,5689,
845,8012,12000,-3788,31.12,-1671,-3938,7233,
846,10604,12908,-5004,31.07,-3135,-5081,10038,
847,10172,13360,-5000,31.07,76,568,9408,
848,9076,13124,-6272,31.12,636,2112,5880,
849,8672,12844,-5444,31.02,456,216,3286,
850,8808,12544,-5916,31.07,-492,-2445,2101,
851,9388,11888,-5100,31.12,-1131,-1457,-1616,
852,9272,11636,-5188,30.98,184,1113,-4229,
853,9920,12884,-5100,31.12,1697,1489,-5803,
854,10648,12484,-5404,30.93,1409,4341,-9718,
855,12928,12352,-5212,31.17,3817,2328,-11080,
856,11200,12104,-4724,31.17,4610,1733,-8512,
857,9476,11144,-3412,31.12,1751,-823,-7877,
858,10192,10724,-3344,31.02,-819,-1998,-6646,
859,8912,11396,-3048,31.02,-813,-1615,-1291,
860,8404,11016,-2872,30.98,-1830,-1997,1607,
861,9156,11840,-4076,31.02,-1355,-1554,4265,
862,9220,12104,-4276,31.07,-1853,-670,5876,
863,9716,11860,-4888,31.12,-2199,-737,6629,
864,10416,12356,-4952,31.12,-2450,-2325,6825,
865,9664,14376,-5216,31.21,-1939,-3730,9635,
866,8916,13436,-5668,30.98,-2030,-3012,7697,
867,9620,11884,-6168,31.12,-1176,36,4929,
868,8004,11748,-5592,31.07,-13,118,1745,
869,9628,11708,-5592,31.07,803,452,-203,
870,9444,11500,-5352,31.07,862,577,-2769,
871,9100,11508,-5548,31.07,1774,1978,-4054,
872,8600,12716,-5360,31.07,636,2760,-5018,
873,8592,12844,-4604,31.17,1601,3709,-7581,
874,9052,12560,-4092,31.12,-44,2949,-9251,
875,11132,13636,-6272,31.02,955,3029,-9325,
876,8888,12096,-4236,31.07,-86,1063,-8341,
877,10452,11796,-3636,30.98,-3078,-4072,-6865,
878,9792,11344,-2308,31.07,-1180,-2418,-1213,
879,8936,11484,-2224,31.07,-1725,-3133,1385,
880,9220,12672,-3148,31.21,-479,-1538,3636,
881,8520,13252,-3152,31.02,-1404,-2212,5026,
882,8844,12976,-3072,31.17,-1538,-2446,5279,
883,9008,12508,-3288,31.12,-950,-3092,5097,
884,10172,12524,-3264,31.07,-272,-3354,6819,
885,8960,13172,-4776,31.12,2758,2040,8471,
886,7452,13872,-6160,31.02,2818,4229,4918,
887,8564,13336,-6576,31.12,675,1774,3385,
888,8596,12556,-5664,31.02,-1217,-1428,3492,
889,9196,11984,-5244,30.98,110,-457,-231,
890,9216,12152,-5500,31.07,661,861,-2484,
891,9272,11920,-5068,31.07,759,1546,-3381,
892,9444,12184,-4300,31.07,-89,2759,-5703,
893,10840,13496,-4072,31.07,-1393,2486,-7600,
894,12624,12516,-3380,31.07,584,2959,-9934,
895,10324,11808,-3660,31.02,-644,848,-8621,
896,9484,11300,-2544,31.02,-2207,-1087,-4672,
897,9524,12176,-2864,30.98,-48,-166,-1667,
898,9328,12720,-2164,31.02,-1234,-1541,627,
899,9328,12148,-2708,31.12,-898,-1356,1773,
900,8888,12472,-3104,31.07,13,886,3022,
901,8320,12736,-2976,31.12,502,685,4103,
902,9516,12360,-3064,30.98,924,-888,5451,
903,9008,13240,-3664,31.07,1051,-769,5373,
904,10228,13808,-4724,31.07,-836,-3592,5759,
905,10460,12356,-4264,31.12,-1982,-2450,6962,
906,10288,12080,-5052,31.12,-1053,-1144,4977,
907,9184,12016,-5436,31.07,1373,1403,2452,
908,8320,12332,-5508,31.07,-491,-621,1524,
909,8828,11476,-5664,31.02,-530,4,-1027,
910,8448,11940,-5604,31.07,1936,2585,-2791,
911,8824,11784,-5876,31.02,3619,4738,-4688,
912,9344,13800,-5484,31.02,3259,2649,-6358,
913,10808,13300,-4436,31.07,2318,479,-8516,
914,12320,12424,-3564,31.02,2059,568,-10507,
915,11800,12228,-3444,31.07,2751,88,-8852,
916,10896,10628,-2972,31.07,-472,-1863,-8137,
917,11044,10700,-3736,30.98,-1525,-1851,-3710,
918,8688,10684,-3120,31.02,-2702,-2939,1989,
919,8660,11016,-3ˇ                                                        ,,,,,
920,8468,6224,-10308,30.98,11615,6262,-1920,
921,9032,5352,-10844,30.98,15375,10048,-3735,
922,13456,644,-10128,31.02,11701,6224,-9483,
923,5812,3312,-13368,31.02,10671,1807,-8344,
924,7704,2100,-10672,31.02,5307,5045,-4449,
925,8564,1012,-12484,31.02,8053,9106,-4817,
926,9388,492,-11288,31.02,5061,7306,-2167,
927,9780,120,-9480,31.07,-1162,1146,-2982,
928,10036,580,-8080,31.07,-1732,-854,-1572,
929,13072,632,-10092,31.02,-948,-7431,1595,
930,10384,1276,-13532,30.93,1684,3149,1140,
931,11308,2604,-10172,30.98,-1549,-4298,-609,
932,10336,724,-10576,30.93,2986,2971,-897,
933,9920,1156,-10560,31.02,-756,6452,-1996,
934,11584,1752,-11104,31.02,-2820,2212,-1188,
935,11612,2704,-10592,30.98,-1749,1301,-3189,
936,12364,1848,-9616,31.07,-840,-902,-98,
937,10960,3000,-10652,31.07,-2042,-1555,61,
938,11632,3004,-9360,31.07,-335,2792,-1557,
939,12060,2568,-9704,30.93,-227,3703,-2082,
940,12528,2880,-9376,31.12,-854,897,-756,
941,12348,3192,-9272,30.98,-173,305,-716,
942,12444,3244,-9196,30.98,-301,670,-620,
943,12328,3164,-8992,30.98,-606,73,-314,
944,12076,3248,-9236,30.93,-774,-277,110,
945,12352,3248,-9096,31.07,-1462,-339,-455,
946,12952,3388,-9504,31.02,-492,547,-689,
947,11968,3660,-9072,31.07,162,-345,-359,
948,12324,3680,-9324,31.07,-536,-255,-215,
949,12168,3472,-9348,30.93,-194,525,-240,
950,12260,3272,-9188,31.02,-627,-994,45,
951,12260,3316,-9008,31.07,-684,-257,-52,
952,12304,3232,-9268,30.93,19,-1279,653,
953,12064,3668,-9380,31.07,-320,-74,229,
954,12112,3180,-9064,31.02,-266,-403,357,
955,12488,3192,-9324,30.98,-641,-497,109,
956,12204,3300,-9284,30.98,-221,-210,41,
957,12240,3552,-9176,31.02,-457,92,-177,
958,12132,3472,-9212,31.07,-459,243,-293,
959,12448,3308,-9640,30.93,-477,709,-65,
960,12316,3428,-8872,31.07,-483,-323,-314,
961,12476,3340,-9768,31.17,-410,-284,-296,
962,12200,3284,-8796,31.07,-452,-529,-113,
963,12348,3656,-9756,30.98,-647,37,-128,
964,12968,3032,-8756,31.12,-384,-59,-1102,
965,11928,3276,-9512,30.93,-78,118,-319,
966,12384,3536,-8744,31.07,-378,768,-608,
967,11948,3732,-10116,31.02,-360,-611,326,
968,12656,4092,-8696,31.07,-1276,-316,-445,
969,12308,3404,-9572,30.93,217,385,-334,
970,12192,3744,-8860,31.07,-552,294,-325,
971,12320,3464,-9408,31.02,-336,356,-445,
972,12228,3800,-9228,31.02,-759,-781,184,
973,11492,2628,-8180,30.98,581,-386,-738,
974,12092,4316,-10328,31.02,-1408,-435,-172,
975,12412,3460,-8424,31.07,-561,520,-542,
976,12000,4080,-9468,31.12,-362,-531,-835,
977,12284,3864,-9248,31.02,-665,-311,-155,
978,12568,3332,-8412,31.02,-110,-1141,-723,
979,11896,3788,-9728,31.02,-98,-379,23,
980,12204,3588,-8744,30.98,-375,381,-463,
981,12144,4056,-9696,31.02,-456,-319,-492,
982,12084,4004,-8864,30.93,-406,-594,23,
983,12480,3792,-9816,30.88,-443,52,310,
984,12268,4200,-9176,30.98,-914,-3,-242,
985,12160,4068,-9820,31.02,3,-689,49,
986,12212,3972,-8612,30.93,-557,220,-149,
987,12092,3956,-9676,31.02,-178,-13,-188,
988,11932,4100,-9040,31.07,-562,-531,66,
989,12560,3784,-9480,31.02,-247,76,387,
990,12476,4140,-9016,31.02,-684,-929,-160,
991,11992,3984,-9688,31.02,-156,-1032,-15,
992,11764,4076,-8896,31.02,-555,9,-115,
993,12084,4004,-9996,30.98,-391,-378,-57,
994,11736,4152,-9220,30.93,-427,-445,-2,
995,11900,3988,-9644,31.07,-433,-252,-80,
996,11820,3588,-9040,31.02,39,-935,-400,
997,11856,3996,-9368,30.98,-1001,-582,-5,
998,11808,3764,-9160,30.98,-283,248,-242,
999,11576,4060,-9380,31.02,-753,-1176,-776,
1000,11928,4112,-9244,30.98,-395,-54,-198,
1001,11900,4200,-9692,30.93,-341,-400,26,
1002,12012,3520,-9680,31.07,-548,7,344,
1003,11912,4320,-9312,31.07,-1054,-225,-111,
1004,11888,3996,-9664,31.12,38,-394,-152,
1005,11764,4112,-9344,30.98,-593,107,-259,
1006,11844,4128,-9652,31.07,-337,-11,-102,
1007,11964,4100,-9620,30.93,-550,-225,-211,
1008,11768,4392,-9144,31.02,-684,-756,182,
1009,11616,3348,-8992,30.98,390,-387,-609,
1010,11640,4336,-9616,30.98,-1100,-762,38,
1011,11764,3912,-9172,30.93,-330,388,-291,
1012,9120,4180,-9444,31.02,-468,-751,-647,
1013,11704,4256,-9100,30.98,-429,-428,33,
1014,11696,4188,-9308,31.02,-291,426,-303,
1015,11724,4216,-9636,31.02,-613,-684,237,
1016,11896,3968,-9120,31.07,103,-196,-493,
1017,11736,3932,-9672,31.02,-550,-347,298,
1018,11704,4048,-8856,30.98,-537,363,-169,
1019,11916,4084,-9780,30.98,-258,253,-364,
1020,11664,4244,-9088,30.98,-554,-588,34,
1021,11788,4360,-9360,30.98,-314,326,2,
1022,12016,3912,-9344,31.07,-152,-687,-385,
1023,11876,4144,-9916,30.84,-486,-217,-130,
1024,11724,4012,-9172,31.02,-540,-205,-105,
1025,11788,4256,-9740,30.98,-369,-151,-128,
1026,11760,4200,-9272,31.07,-465,-459,-14,
1027,11740,4256,-9408,31.07,-358,-13,-132,
1028,11892,4016,-9584,30.88,-474,-106,33,
1029,11792,4488,-9736,31.12,-707,-444,-105,
1030,11772,4172,-9716,31.02,-20,-507,-146,
1031,11692,4096,-9452,31.12,-487,-187,-147,
1032,11652,4212,-9568,31.02,-533,-211,-100,
1033,11736,4436,-9520,31.07,-332,155,-248,
1034,11644,4116,-9432,30.98,-389,-85,-155,
1035,11880,4068,-9440,30.98,-389,38,-66,
1036,11836,4564,-9432,31.02,-837,-520,-127,
1037,11772,4284,-9652,31.02,-28,-380,-182,
1038,11572,4280,-9240,31.02,-528,-224,-251,
1039,11792,4308,-9540,30.93,-436,-168,-163,
1040,11708,4528,-9564,31.02,-389,67,-197,
1041,11692,4436,-9540,30.93,-445,5,-112,
1042,11600,3708,-9276,31.17,94,-248,-453,
1043,11632,4552,-9360,31.02,-839,-522,-116,
1044,11788,4204,-9244,31.02,-272,243,-202,
1045,11824,4352,-9624,31.02,-356,-240,-255,
1046,11708,4432,-9212,30.98,-434,-359,-87,
1047,11716,4448,-9284,31.17,-282,-14,-177,
1048,11728,4388,-9476,30.98,-380,23,-203,
1049,11840,4488,-9596,30.93,-605,-503,191,
1050,12032,3984,-8876,31.02,15,-316,-510,
1051,11568,4416,-9840,30.93,-396,-755,5,
1052,11624,4260,-9148,30.98,-352,250,-215,
1053,11676,4476,-9944,30.98,-191,-21,-186,
1054,11620,4464,-9208,30.98,-415,-432,-66,
1055,11748,4396,-9528,30.88,-242,-86,-148,
1056,11712,4360,-9628,31.07,-390,-369,-61,
1057,11680,4300,-9248,30.98,-312,-133,-167,
1058,11596,4368,-9576,30.98,-378,-287,-113,
1059,11628,4380,-9572,31.07,-425,-185,-111,
1060,11788,4376,-9412,30.93,-396,-205,-158,
1061,11704,4340,-9496,30.93,-382,-221,-83,
1062,11688,4336,-9652,30.93,-358,-213,-92,
1063,11664,4416,-9516,31.02,-369,-259,-112,
1064,11680,4384,-9600,30.93,-407,-253,-107,
1065,11720,4352,-9588,31.12,-404,-195,-126,
1066,11676,4420,-9548,30.98,-412,-239,-131,
1067,11624,4416,-9448,31.07,-421,-231,-151,
1068,11592,4356,-9504,30.98,-439,-243,-163,
1069,11632,4420,-9580,30.98,-409,-216,-144,
1070,11520,4504,-9408,30.93,-390,-194,-132,
1071,11608,4308,-9496,30.93,-388,-200,-170,
1072,11696,4432,-9532,31.02,-408,-257,-112,
1073,11616,4392,-9532,31.07,-410,-218,-171,
1074,11532,4428,-9576,30.98,-422,-183,-112,
1075,11632,4424,-9592,30.98,-402,-201,-155,
1076,11580,4416,-9404,30.98,-370,-200,-157,
1077,1,,,,,,,
1078,,,,,,,,
Sample,aX,aY,az,Temp,gX,gY,gz                                                   ,
1,-6536,6604,-2284,31.64,-7460,-8629,-6694,
2,-5524,-736,-5520,31.73,32767,22883,-10328,
3,-1716,3804,-10332,31.73,32767,32767,5131,
4,-3856,-2352,-11656,31.64,3770,5601,-8227,
5,-444,3528,-16192,31.73,-4382,-1797,-11936,
6,3004,11416,-25212,31.73,-32768,1134,-26220,
7,3612,-72,-9332,31.68,-32768,8889,-27413,
8,-788,2092,-1448,31.64,32767,-32768,32491,
9,-9792,-3672,-8072,31.68,32767,-23212,23591,
10,1284,1888,-7524,31.59,32767,4282,10961,
11,3036,3712,-15492,31.73,14436,3363,499,
12,-5724,-2160,-17300,31.73,-4802,2878,-5979,
13,-1840,-4500,-13832,31.64,-894,1478,925,
14,-3400,-2384,-12948,31.78,-4068,6707,5929,
15,728,108,-16404,31.73,-4626,8511,4865,
16,4432,11416,-21104,31.73,-20656,6005,-3667,
17,-12312,5028,-11844,31.73,-24228,772,-10199,
18,-1072,5012,-13120,31.73,513,4353,-8192,
19,-3160,1328,-11588,31.68,-724,6767,1170,
20,768,-5436,-12992,31.73,-6020,-8027,6285,
21,1256,3780,-12048,31.64,-3510,1684,5677,
22,1652,7860,-12540,31.78,-5572,1239,10318,
23,1072,4864,-13408,31.64,-25272,7681,-28325,
24,-1028,9812,-14628,31.64,-6354,8569,-5273,
25,1952,7800,-6992,31.68,-5904,12050,-2651,
26,844,17700,-9848,31.73,-13164,-8661,-524,
27,1680,13944,-8404,31.68,385,6827,5132,
28,2308,15276,-11952,31.68,3118Ó                                       ,,,