97,0,-119,-106,,,,,,
798,1768,14904,8348,29.57,0,29.66,-296,-45,-249
797,1704,14944,8416,29.52,-264,-119,-106,,
798,1768,14904,8348,29.57,-                                            ,,,,
Sample,aX,aY,az,Temp,gX,gY,gz                                                   ,,
1,1596,14752,9172,29.61,-285,-156,-100,,
2,1728,14768,9180,29.71,-419,-214,-111,,
3,1584,14616,9140,29.66,-318,-135,-184,,
4,1564,14760,9176,29.66,-332,-137,-224,,
5,1572,14744,9212,29.75,-340,-153,-133,,
6,1596,14728,8952,29.71,-318,-136,-178,,
7,1640,14772,9076,29.66,-322,-195,-90,,
8,1604,14772,9060,29.57,-366,-206,-144,,
9,1584,14712,9184,29.66,-359,-146,-112,,
10,1636,14712,8984,29.61,-296,-162,-228,,
11,1648,14728,9140,29.66,-323,-147,-129,,
12,1564,14668,9188,29.71,-397,-146,-200,,
13,1620,14692,9104,29.57,-385,-165,-104,,
14,1588,14672,9224,29.71,-389,-181,-85,,
15,1660,14852,9072,29.71,-377,-192,-104,,
16,1656,14764,9204,29.66,-411,-222,-79,,
17,1512,14780,9188,29.57,-259,-107,-167,,
18,1616,14760,9352,29.66,-324,-132,-140,,
19,1676,14696,9200,29.71,-370,-160,-199,,
20,1640,14780,9160,29.57,-355,-174,-104,,
21,1512,14772,9008,29.61,-353,-231,-130,,
22,1504,14800,9132,29.71,-460,-245,-118,,
23,1472,14744,9204,29.75,-373,-206,-81,,
24,1636,14812,9288,29.66,-325,-125,-84,,
25,1632,14684,9288,29.71,-470,-303,-107,,
26,1576,14800,9124,29.75,-344,-217,-129,,
27,1496,14728,8988,29.71,-468,-323,-32,,
28,1472,14772,9228,29.61,-437,-368,-80,,
29,1652,14792,9040,29.71,-628,-505,151,,
30,1548,14820,9216,29.57,-235,-203,-114,,
31,1628,14632,8744,29.8,-1331,-1150,47,,
32,1936,14284,9596,29.75,-693,-280,263,,
33,1648,14700,9360,29.66,-98,292,-66,,
34,1680,14728,9184,29.66,-302,-126,127,,
35,1812,14692,9224,29.66,-300,-90,-135,,
36,1616,14684,9116,29.71,-323,-185,-300,,
37,1712,14540,9436,29.61,-424,-314,-57,,
38,1708,14548,9392,29.66,-310,-136,-86,,
39,1676,14632,9380,29.66,-329,-91,-113,,
40,1860,14732,9172,29.71,-286,-129,-143,,
41,1812,14720,9388,29.75,-361,-162,-225,,
42,1620,14536,9292,29.71,-339,-217,-106,,
43,1624,14712,9244,29.61,-343,-117,-203,,
44,1696,14684,9212,29.66,-368,-214,-100,,
45,1736,14660,9112,29.71,-341,-221,-128,,
46,1740,14656,9264,29.66,-410,-202,-83,,
47,1736,14724,9348,29.66,-334,-190,-143,,
48,1528,14648,9184,29.71,-427,-256,-166,,
49,1712,14480,9280,29.75,-313,-163,-156,,
50,1648,14656,9144,29.8,-379,-246,84,,
51,1804,14588,9360,29.71,-413,-269,-39,,
52,1872,14936,9204,29.75,-481,-276,-209,,
53,1972,14764,9256,29.75,-768,-828,-51,,
54,1600,14508,9416,29.61,-508,301,-428,,
55,1184,14616,9436,29.71,235,751,-124,,
56,1692,14712,9140,29.71,-327,-314,346,,
57,2116,14520,9272,29.8,-736,-632,106,,
58,2208,14664,9108,29.66,-707,-585,-89,,
59,2116,14588,9284,29.75,-544,-429,-437,,
60,1744,14784,9244,29.71,-523,-256,-659,,
61,1540,14368,9588,29.66,-672,-147,-490,,
62,1380,14448,9768,29.71,-256,90,-21,,
63,1748,14904,9348,29.66,-203,228,225,,
64,1976,14672,9152,29.66,#NAME?,,,,
Sample,aX,aY,az,Temp,gX,gY,gz                                                   ,,
1,1712,14628,9392,29.71,-381,-275,-90,,
2,1680,14572,9400,29.71,-394,-133,-162,,
3,1632,14664,9180,29.8,-406,-150,-177,,
4,1612,14700,9408,29.66,-420,-187,-103,,
5,1644,14608,9328,29.75,-306,-147,-127,,
6,1616,14596,9332,29.75,-379,-254,-53,,
7,1604,14680,9324,29.8,-351,-135,-198,,
8,1660,14700,9400,29.71,-314,-128,-97,,
9,1612,14672,9284,29.8,-279,-117,-159,,
10,1580,14616,9304,29.8,-235,-77,-167,,
11,1492,14620,9212,29.75,-389,-177,-89,,
12,1704,14624,9404,29.75,-340,-201,-136,,
13,1576,14684,9236,29.8,-401,-268,-30,,
14,1652,14748,9320,29.75,-310,-108,-123,,
15,1644,14624,9388,29.75,-377,-169,-149,,
16,1648,14632,9220,29.8,-385,-175,-37,,
17,1604,14724,9296,29.75,-295,-81,-137,,
18,1604,14692,9124,29.75,-316,-144,-156,,
19,1572,14624,9192,29.71,-433,-176,-78,,
20,1440,14660,9232,29.75,-301,-105,-24,,
21,1612,14616,9360,29.75,-349,-179,36,,
22,1660,14644,9304,29.75,-328,-103,-196,,
23,1532,14744,9252,29.71,-425,-302,-60,,
24,1576,14636,9232,29.75,-363,-138,-145,,
25,1648,14664,9396,29.8,-373,-292,-42,,
26,1648,14608,9244,29.8,-377,-177,-222,,
27,1724,14672,9120,29.75,-209,-90,-170,,
28,1724,14672,9200,29.8,-414,-260,-169,,
29,1604,14564,9300,29.8,-319,-94,-209,,
30,1656,14672,9312,29.66,-338,-164,-149,,
31,1660,14716,9412,29.8,-281,-71,-136,,
32,1552,14604,9328,29.71,-354,-168,-128,,
33,1532,14668,9272,29.75,-326,-134,-154,,
34,1572,14596,9200,29.8,-304,-136,-109,,
35,1580,14804,9324,29.75,-346,-142,-135,,
36,1540,14652,9296,29.71,-321,-128,-249,,
37,1632,14748,9184,29.75,-324,-207,-127,,
38,1604,14596,9312,29.8,-308,-110,-204,,
39,1620,14628,9164,29.8,-345,-190,-136,,
40,1616,14660,9236,29.75,-362,-163,-149,,
41,1648,14544,9292,29.8,-375,-211,-95,,
42,1580,14584,9320,29.75,-382,-151,-75,,
43,1528,14640,9244,29.89,-390,-220,-127,,
44,1524,14680,9104,29.75,-350,-178,-142,,
45,1544,14712,9256,29.8,-350,-176,-140,,
46,1584,14668,9324,29.8,-396,-174,-114,,
47,1488,14720,9168,29.75,-355,-101,-231,,
48,1528,14620,9136,29.8,-477,-322,-33,,
49,1548,14656,9140,29.75,-320,-145,-160,,
50,1692,14648,9344,29.8,-295,-155,-93,,
51,1552,14608,9124,29.85,-406,-175,-106,,
52,1512,14780,9264,29.71,-212,-42,-127,,
53,1544,14680,9324,29.8,-407,-280,-98,,
54,1368,14672,9172,29.85,-389,-212,-129,,
55,1668,14648,9316,29.8,-283,-111,-198,,
56,1676,14656,9084,29.75,-391,-224,45,,
57,1744,14656,9304,29.75,-392,-93,-62,,
58,1612,14732,9164,29.85,-400,-154,-77,,
59,1672,14648,9484,29.85,-437,-230,-84,,
60,1548,14700,9200,29.8,-448,-235,-177,,
61,1600,14692,9412,29.85,-425,-317,-84,,
62,1500,14576,9264,29.8,-376,-225,-185,,
63,1480,14688,9380,29.85,-418,-269,-120,,
64,1732,14660,9228,29.8,-409,-277,-21,,
65,1672,14780,9300,29.85,-405,-133,-52,,
66,1780,14668,9292,29.75,-471,-223,-35,,
67,1692,14624,9236,29.8,-478,-253,-125,,
68,1628,14656,9228,29.85,-407,-286,-187,,
69,1524,14608,9468,29.89,-309,-275,-266,,
70,1592,14516,9240,29.75,-385,-293,-301,,
71,1608,14648,9336,29.8,-372,-233,-242,,
72,1572,14744,9232,29.75,-442,-223,-54,,
73,1736,14644,9260,29.75,-447,-67,26,,
74,1668,14732,9348,29.89,-338,-85,-147,,
75,1680,14656,9280,29.8,-366,-171,-173,,
76,1528,14564,9328,29.85,-254,-146,-208,,
77,1576,14832,9324,29.8,-371,-270,-125,,
78,1732,14540,9276,29.85,-328,-113,-57,,
79,1644,14716,9228,29.89,-226,25,-92,,
80,1620,14748,9196,29.89,-409,-95,-100,,
81,1656,14588,9380,29.85,-367,-130,-200,,
82,1700,14680,9340,29.99,-350,-88,-164,,
83,1632,14528,9472,29.8,-276,-269,-144,,
84,1512,14596,9396,29.85,-376,-346,-195,,
85,1552,14624,9392,29.8,-272,-99,-182,,
86,1580,14836,9372,29.85,-300,-86,-85,,
87,1756,14660,9320,29.75,-417,-169,6,,
88,1508,14680,9192,29.85,-356,-107,-158,,
89,1572,14636,9156,29.85,-373,-172,-129,,
90,1608,14592,9256,29.8,-359,-173,-133,,
91,1476,14624,9288,29.75,-319,-256,-118,,
92,1548,14732,9296,29.8,-339,-137,-54,,
93,1672,14632,9256,29.85,-334,-164,-31,,
94,1652,14664,9276,29.75,-332,-64,-50,,
95,1504,14660,9220,29.85,-315,-71,-138,,
96,1608,14680,9336,29.89,-402,-212,-66,,
97,1672,14508,9228,29.8,-346,-166,-202,,
98,1524,14584,9352,29.85,-391,-240,-130,,
99,1484,14720,9492,29.8,-293,-122,-76,,
100,1656,14644,9220,29.85,-307,-166,-44,,
101,1564,14764,9252,29.89,-366,-156,-76,,
102,1504,14736,9192,29.85,-284,-90,-146,,
103,1548,14620,9380,29.85,-391,-190,-153,,
104,1536,14680,9192,29.85,-383,-203,-120,,
105,1640,14660,9172,29.8,-265,-171,-187,,
106,1516,14660,9192,29.8,-281,-180,-143,,
107,1724,14612,9248,29.75,-378,-163,-18,,
108,1696,14588,9112,29.89,-330,-126,-186,,
109,1680,14596,9296,29.85,-400,-180,-161,,
110,1504,14692,9108,29.8,-324,-152,-208,,
111,1560,14636,9372,29.89,-380,-202,-172,,
112,1636,14480,9408,29.75,-402,-257,-151,,
113,1536,14692,9384,29.89,-343,-211,-104,,
114,1588,14724,9320,29.85,-265,-110,-65,,
115,1580,14696,9372,29.8,-425,-115,-110,,
116,1640,14616,9212,29.89,-388,-149,-168,,
117,1508,14592,9312,29.85,-395,-193,-105,,
118,1560,14616,9380,29.89,-303,-171,-167,,
119,1620,14692,9288,29.8,-384,-228,-120,,
120,1528,14540,9192,29.85,-314,-126,-90,,
121,1636,14628,9252,29.89,-287,-139,-52,,
122,1648,14616,9308,29.85,-448,-187,-115,,
123,1504,14604,9236,29.89,-390,-166,-136,,
124,1500,14636,9392,29.85,-422,-206,-171,,
125,1488,14628,9372,29.85,-326,-224,-121,,
126,1652,14708,9160,29.89,-406,-251,-116,,
127,1712,14744,9228,29.89,-457,-195,2,,
128,1528,14648,9208,29.89,-390,-150,-48,,
129,1692,14680,9408,29.85,-424,-197,-109,,
130,1540,14616,9248,29.8,-363,-188,-171,,
131,1564,14636,9340,29.85,-324,-116,-228,,
132,1580,14704,9520,29.85,-265,-86,-137,,
133,1392,14676,9092,29.89,-469,-391,93,,
134,1672,14716,9432,29.94,-313,-54,-95,,
135,1576,14776,9036,29.94,-439,-225,-135,,
136,1564,14656,9304,29.85,-418,-145,-99,,
137,1400,14688,9300,29.89,-272,-233,-169,,
138,1624,14604,9408,29.85,-371,-217,-127,,
139,1576,14780,9360,29.8,-330,-199,-75,,
140,1576,14716,9284,29.85,-314,-143,-29,,
141,1788,14676,9188,29.89,-380,-136,-51,,
142,1700,14672,9212,29.94,-334,-139,-166,,
143,1492,14552,9336,29.8,-450,-220,-129,,
144,1588,14488,9568,29.85,-157,37,-371,,
145,1568,14640,9184,29.89,-445,-356,-5,,
146,1608,14648,9276,29.85,-316,-155,-213,,
147,1580,14720,9388,29.8,-356,-197,-106,,
148,1676,14656,9076,29.94,-405˛                                        ,,,,
149,1680,14536,9420,29.94,-319,-116,-157,,
150,1536,14692,9144,29.94,-273,-98,-243,,
151,1560,14608,9392,29.85,-442,-275,25,,
152,1664,14600,9252,29.85,-306,-84,-134,,
153,1772,14668,9252,29.94,-475,-238,-110,,
154,1588,14668,9304,29.99,-362,-141,-193,,
155,1632,14676,9320,29.94,-324,-128,-222,,
156,1548,14616,9436,29.85,-372,-199,-127,,
157,1508,14716,9288,29.94,-380,-248,-206,,
158,1512,14740,9292,29.89,-324,-188,-76,,
159,1616,14804,9212,29.89,-288,-131,-85,,
160,1564,14628,9208,29.85,-436,-160,-65,,
161,1588,14660,9204,29.94,-357,-136,-172,,
162,1444,14680,9268,29.94,-386,-193,-171,,
163,1468,14688,9508,29.99,-340,-167,-113,,
164,1516,14620,9236,29.94,-284,-127,-213,,
165,1476,14616,9336,29.99,-353,-240,-125,,
166,1604,14704,9332,29.94,-310,-142,-210,,
167,1600,14636,9212,29.99,-381,-146,-115,,
168,1516,14600,9268,29.94,-433,-153,-63,,
169,1620,14656,9168,29.94,-331,-141,-162,,
170,1424,14576,9228,29.89,-451,-236,-116,,
171,1596,14744,9360,29.85,-304,-129,-155,,
172,1416,14648,9100,29.99,-400,-239,-43,,
173,1560,14652,9312,29.94,-329,-153,-209,,
174,1476,14624,8988,30.04,-391,-212,-96,,
175,1560,14772,9224,29.89,-407,-193,-79,,
176,1584,14688,9420,29.94,-459,-246,-63,,
177,1568,14644,9256,29.94,-477,-249,-64,,
178,1652,14636,9168,29.89,-373,-173,-82,,
179,1596,14688,9336,29.89,-397,-218,-114,,
180,1560,14560,9196,29.94,-434,-215,-119,,
181,1516,14676,9364,29.99,-368,-221,-109,,
182,1528,14660,9240,29.94,-400,-239,3,,
183,1620,14604,9276,30.04,-319,-131,-56,,
184,1580,14636,9184,29.85,-364,-234,-82,,
185,1744,14596,9348,29.99,-451,-220,-35,,
186,1572,14636,9276,30.04,-327,-147,-170,,
187,1604,14712,9296,29.85,-375,-165,-91,,
188,1680,14484,9400,29.99,-321,-191,-158,,
189,1536,14616,9404,29.94,-406,-273,-124,,
190,1668,14732,9372,29.89,-300,-204,-169,,
191,1548,14660,9460,30.04,-341,-156,-150,,
192,1712,14704,9436,29.89,-386,-175,-95,,
193,1640,14596,9200,30.04,-314,-139,-178,,
194,1504,14576,9372,30.04,-406,-183,-128,,
195,1496,14684,9188,29.94,-393,-205,-169,,
196,1580,14760,9244,29.99,-329,-161,-198,,
197,1536,14544,9324,29.94,-319,-146,-119,,
198,1616,14704,9280,29.99,-313,-198,-170,,
199,1580,14684,9224,29.94,-354,-178,-149,,
200,1584,14648,9448,29.99,-355,-167,-139,,
201,1644,14624,9240,29.85,-410,-187,-112,,
202,1564,14652,9356,29.89,-329,-114,-94,,
203,1484,14612,9208,29.94,-328,-180,-195,,
204,1496,14636,9248,29.99,-373,-156,-108,,
205,1580,14664,9324,29.94,-348,-184,-118,,
206,1608,14628,9256,29.99,-397,-219,-150,,
207,1576,14620,9308,29.99,-374,-224,-109,,
208,1532,14716,9352,29.94,-365,-171,-126,,
209,1608,14724,9452,29.99,-387,-159,-47,,
210,1612,14600,9496,30.04,-77,62,-225,,
211,1552,14476,9244,30.04,-716,-470,123,,
212,1484,14744,9180,29.85,-240,-107,-135,,
213,1608,14632,9376,29.8,-389,-208,-65,,
214,1512,14728,9220,29.94,-332,-160,-146,,
215,1528,14620,9452,29.94,-349,-185,-217,,
216,1552,14764,9240,29.94,-202,-2,-241,,
217,1656,14628,9372,29.85,-428,-247,-27,,
218,1496,14764,9200,30.04,-261,-65,-79,,
219,1480,14636,9212,29.85,-444,-259,-61,,
220,1456,14688,9292,29.99,-413,-191,-78,,
221,1496,14592,9236,30.08,-291,-156,-55,,
222,1560,14600,9268,30.04,-323,-162,-147,,
223,1516,14756,9384,29.99,-479,-288,-82,,
224,1712,14712,9300,29.85,-342,-344,-92,,
225,1536,14592,9352,29.94,-511,-254,-137,,
226,1560,14624,9492,30.08,-365,-121,-178,,
227,1476,14644,9388,29.94,-424,-259,-39,,
228,1648,14620,9308,29.99,-388,-209,-113,,
229,1636,14664,9332,29.94,-341,-200,-181,,
230,1584,14672,9376,29.99,-426,-205,-204,,
231,1516,14692,9296,30.04,-397,-264,-174,,
232,1596,14504,9380,30.08,-350,-173,-149,,
233,1528,14612,9376,29.94,-428,-209,-159,,
234,1612,14596,9484,30.08,-408,-208,-148,,
235,1628,14628,9260,29.94,-322,-120,-93,,
236,1584,14600,9432,30.04,-379,-159,-111,,
237,1552,14576,9312,29.99,-402,-199,-156,,
238,1560,14704,9504,29.99,-328,-226,-144,,
239,1448,14628,9440,30.04,-363,-161,-178,,
240,1596,14728,9232,29.99,-336,-116,-128,,
241,1572,14660,9312,30.04,-254,-55,-134,,
242,1496,14692,9188,29.94,-361,-145,-133,,
243,1488,14688,9328,30.08,-389,-154,-115,,
244,1616,14716,9236,30.04,-244,-48,-86,,
245,1452,14560,9416,29.89,-291,-151,-160,,
246,1592,14688,9440,29.94,-352,-206,-58,,
247,1492,14692,9248,30.13,-333,-209,-163,,
248,1584,14676,9208,29.99,-393,-212,-152,,
249,1620,14664,9276,30.04,-328,-224,-140,,
250,1544,14684,9128,30.04,-339,-128,-80,,
251,1728,14668,9232,29.99,-344,-146,-124,,
252,1448,14704,9172,30.04,-402,-219,-200,,
253,1520,14660,9236,30.04,-366,-194,-97,,
254,1400,14604,9144,30.08,-309,-150,-118,,
255,1468,14668,9212,29.94,-314,-171,-127,,
256,1348,14688,8956,29.99,-61,99,-321,,
257,1576,14472,9436,29.99,-392,-210,-128,,
258,1440,14680,9136,30.04,-416,-227,-134,,
259,1636,14716,9444,30.04,-332,-174,-8,,
260,1492,14676,9204,30.08,-445,-262,-103,,
261,1524,14680,9352,30.04,-391,-239,-58,,
262,1520,14604,9280,30.08,-341,-172,-133,,
263,1532,14592,9292,30.08,-407,-189,-15,,
264,1664,14608,9220,30.04,-356,-164,-189,,
265,1392,14744,9200,30.08,-357,-184,-73,,
266,1500,14592,9244,30.04,-297,-189,-101,,
267,1524,14660,9384,30.13,-432,-218,-148,,
268,1440,14656,9276,30.04,-377,-183,-26,,
269,1476,14684,9120,29.89,-443,-214,-92,,
270,1496,14740,9368,30.04,-419,-224,-77,,
271,1472,14664,9364,29.99,-365,-208,-158,,
272,1660,14628,9264,30.04,-383,-188,-133,,
273,1376,14608,9128,29.94,-398,-218,-159,,
274,1476,14648,9300,29.99,-393,-259,-119,,
275,1364,14700,9204,30.18,-363,-159,-62,,
276,1608,14692,9420,30.13,-360,-229,-76,,
277,1492,14672,9264,30.04,-329,-68,-65,,
278,1540,14616,9324,30.08,-310,-131,-105,,
279,1672,14700,9240,30.04,-353,-184,-295,,
280,1508,14644,9224,30.04,-354,-172,-116,,
281,1548,14632,9268,29.99,-267,-163,-146,,
282,1540,14580,9224,30.04,-381,-212,-118,,
283,1548,14660,9232,29.94,-396,-239,-137,,
284,1452,14760,9376,29.99,-353,-170,-124,,
285,1572,14652,9164,30.04,-391,-180,-79,,
286,1528,14708,9316,30.08,-360,-147,-82,,
287,1560,14532,9484,29.94,-175,-59,-132,,
288,1520,14676,9340,30.04,-421,-215,-117,,
289,1564,14628,9256,30.08,-367,-191,-165,,
290,1460,14588,9196,30.04,-327,-156,-91,,
291,1508,14724,9408,30.08,-285,-156,-154,,
292,1592,14600,9300,30.08,-330,-169,-190,,
293,1472,14716,9240,30.04,-379,-175,-114,,
294,1496,14700,9236,30.08,-343,-205,-87,,
295,1480,14724,9228,30.13,-431,-183,-166,,
296,1616,14660,9384,30.04,-384,-192,-89,,
297,1400,14612,9228,30.08,-305,-113,-186,,
298,1484,14532,9276,30.13,-331,-130,-137,,
299,1488,14756,9192,30.04,-188,-6,-137,,
300,1548,14716,9268,30.04,-385,-185,-115,,
301,1396,14608,9244,30.04,-405,-230,-74,,
302,1628,14628,9152,29.99,-356,-149,-106,,
303,1420,14708,9204,30.04,-440,-223,-14,,
304,1640,14736,9288,29.89,-279,-87,-116,,
305,1508,14596,9148,30.08,-367,-210,-116,,
306,1512,14648,9324,30.13,-335,-101,-132,,
307,1376,14672,9140,30.08,-333,-168,-123,,
308,1552,14672,9296,30.04,-439,-340,-79,,
309,1576,14672,9236,30.04,-356,-254,-106,,
310,1668,14672,9204,29.99,-364,-185,-82,,
311,1596,14744,9252,30.13,-326,-189,-92,,
312,1576,14640,9368,30.08,-341,-121,-153,,
313,1548,14656,9188,30.08,-349,-156,-136,,
314,1384,14752,9252,30.04,-314,-151,-182,,
315,1516,14656,9296,30.08,-267,-140,-165,,
316,1568,14576,9160,30.18,-365,-214,-165,,
317,1528,14640,9236,30.04,-307,-132,-149,,
318,1512,14656,9380,30.08,-321,-151,-139,,
319,1504,14604,9232,30.04,-395,-187,-150,,
320,1484,14700,9064,29.94,-348,-243,-115,,
321,1440,14808,9268,30.13,-399,-216,-114,,
322,1620,14752,9192,29.99,-431,-215,-56,,
323,1560,14676,9232,30.04,-317,-174,-112,,
324,1444,14664,9340,30.18,-348,-188,-184,,
325,1572,14564,9408,30.08,-349,-167,-150,,
326,1476,14620,9240,30.04,-307,-200,-116,,
327,1564,14652,9340,30.04,-380,-253,-105,,
328,1540,14844,9348,30.08,-364,-183,-150,,
329,1648,14692,9232,30.13,-343,-185,-48,,
330,1512,14640,9144,30.13,-380,-151,-165,,
331,1536,14612,9236,29.99,-345,-183,-178,,
332,1532,14684,9308,30.04,-342,-181,-148,,
333,1496,14604,9300,30.04,-300,-195,-149,,
334,1540,14720,9368,30.08,-398,-182,-116,,
335,1496,14764,9104,30.13,-280,-128,-85,,
336,1592,14668,9248,30.08,-390,-170,-97,,
337,1564,14700,9256,30.04,-431,-157,-100,,
338,1416,14696,9212,30.22,-343,-163,-188,,
339,1468,14696,9164,30.08,-406,-241,-19,,
340,1504,14652,9260,30.13,-317,-122,-187,,
341,1492,14684,9056,30.04,-406,-229,-53,,
342,1636,14840,9356,30.04,-318,-130,-143,,
343,1720,14692,9360,30.04,-386,-156,-111,,
344,1432,14676,9268,30.04,-377,-170,-170,,
345,1444,14576,9224,30.08,-365,-155,-52,,
346,1560,14676,9184,30.13,-449,-246,-110,,
347,1644,14676,9212,30.08,-443,-235,-112,,
348,1520,14600,9168,30.08,-404,-210,-146,,
349,1636,14776,9232,30.13,-405,-242,-159,,
350,1496,14584,9312,30.18,-430,-223,-151,,
351,1604,14652,9172,30.08,-400,-259,-73,,
352,1644,14704,9256,30.13,-307,-147,-87,,
353,1664,14628,9416,30.08,-330,-122,-143,,
354,1568,14532,9292,30.13,-276,-131,-186,,
355,1576,14628,9292,30.13,-330,-161,-205,,
356,1484,14688,9336,30.18,-399,-184,-91,,
357,1548,14700,9088,30.13,-313,-223,-82,,
358,1584,14704,9324,29.94,-390,-228,-114,,
359,1556,14592,9332,30.08,-356,-175,-76,,
360,1548,14584,9216,30.13,-335,-87,-179,,
361,1636,14704,9396,29.99,-336,-148,-108,,
362,1444,14704,9396,30.13,-395,-216,-102,,
363,1560,14552,9348,30.22,-320,-104,-175,,
364,1540,14704,9288,29.99,-352,-228,-117,,
365,1644,14644,9416,30.04,-340,-195,-205,,
366,1504,14604,9248,30.13,-382,-202,-184,,
367,1504,14636,9312,30.08,-410,-187,-119,,
368,1576,14700,9220,30.08,-323,-134,-114,,
369,1528,14656,9264,30.13,-336,-178,-159,,
370,1460,14640,9348,30.13,-328,-152,-139,,
371,1444,14688,9208,30.08,-266,-74,-122,,
372,1552,14596,9328,30.13,-309,-181,-232,,
373,1516,14760,9236,30.08,-407,-130,-186,,
374,1508,14672,9196,30.18,-312,-76,-193,,
375,1372,14644,9372,30.13,-324,-270,-111,,
376,1648,14620,9396,30.08,-393,-61,-133,,
377,1572,14788,9212,30.13,-287,-66,-172,,
378,1460,14664,9268,30.18,-218,-40,-214,,
379,1524,14652,9264,30.13,-424,-175,-68,,
380,1364,14644,9180,30.18,-319,-218,-157,,
381,1452,14704,9144,30.22,-279,-209,-154,,
382,1484,14780,9100,30.13,-354,-204,-86,,
383,1456,14724,9244,30.08,-276,-47,-86,,
384,1420,14664,9180,30.08,-429,-142,-104,,
385,1580,14656,9208,30.22,-395,-172,-61,,
386,1620,14840,9124,30.18,-328,-156,-113,,
387,1444,14552,9312,30.08,-374,-195,-112,,
388,1464,14716,9304,30.04,-282,-113,-208,,
389,1320,14616,9172,30.08,-411,-213,-133,,
390,1476,14724,9148,30.22,-300,-145,-95,,
391,1556,14612,9072,30.18,-418,-291,-3,,
392,1516,14672,9208,30.13,-462,-236,-85,,
393,1556,14724,9208,30.08,-398,-225,-128,,
394,1656,14720,9328,30.13,-369,-171,-182,,
395,1528,14704,9256,30.13,-357,-217,-88,,
396,1496,14728,9176,30.18,-387,-260,-114,,
397,1500,14660,9092,30.22,-276,-153,-195,,
398,1608,14704,9192,30.13,-397,-244,-80,,
399,1596,14740,9252,30.18,-450,-215,-96,,
400,1492,14700,9200,30.13,-316,-55,-181,,
401,1552,14680,9176,30.18,-380,-202,-121,,
402,1548,14616,9096,30.13,-349,-181,-165,,
403,1552,14832,9316,30.18,-364,-184,-149,,
404,1556,14656,9168,30.13,-442,-228,-126,,
405,1544,14828,9112,30.13,-313,-192,-166,,
406,1528,14696,9224,30.18,-352,-149,-134,,
407,1556,14752,9264,30.18,-354,-176,-83,,
408,1504,14660,9264,30.13,-326,-113,-127,,
409,1488,14560,9168,30.27,-380,-164,-102,,
410,1516,14748,9348,30.13,-380,-244,-161,,
411,1420,14792,9320,30.13,-338,-159,-135,,
412,1424,14648,9192,30.18,-346,-150,-165,,
413,1596,14600,9080,30.13,-346,-204,-79,,
414,1420,14704,9208,30.18,-372,-162,-133,,
415,1448,14660,9340,30.13,-386,-157,-103,,
416,1544,14740,9168,30.13,-387,-235,-185,,
417,1516,14756,9288,30.13,-377,-230,-165,,
418,1468,14644,9080,30.18,-382,-203,-77,,
419,1500,14736,9280,30.22,-330,-163,-49,,
420,1576,14808,9288,30.08,-422,-168,-149,,
421,1660,14632,9252,30.13,-332,-149,-182,,
422,1432,14644,9396,30.13,-392,-170,-166,,
423,1512,14684,9304,30.08,-317,-214,-106,,
424,1444,14656,9296,30.13,-320,-148,-66,,
425,1452,14724,9216,30.18,-381,-220,-29,,
426,1596,14696,9064,30.13,-447,-190,-97,,
427,1576,14804,9272,30.18,-369,-120,-97,,
428,1548,14708,9180,30.13,-367,-185,-116,,
429,1560,14628,9140,30.22,-375,-98,-188,,
430,1464,14632,9316,30.08,-367,-196,-84,,
431,1404,14624,9128,30.22,-284,-196,-143,,
432,1484,14704,9348,30.18,-347,-164,-71,,
433,1456,14692,9040,30.13,-393,-216,-114,,
434,1540,14788,9104,30.18,-406,-197,-87,,
435,1596,14700,9384,30.13,-346,-170,-148,,
436,1552,14588,9092,30.13,-407,-184,-107,,
437,1596,14744,9292,30.18,-384,-214,-158,,
438,1536,14684,9200,30.13,-379,-201,-150,,
439,1552,14684,9392,30.22,-307,-196,-107,,
440,1536,14644,9288,30.08,-341,-227,-133,,
441,1472,14688,9232,30.13,-359,-167,-46,,
442,1508,14772,9316,30.08,-353,-209,-235,,
443,1492,14604,9324,30.18,-439,-183,-80,,
444,1624,14808,9312,30.13,-349,-135,-134,,
445,1504,14608,9208,30.18,-311,-134,-220,,
446,1660,14636,9260,30.13,-311,-214,-149,,
447,1512,14616,9172,30.22,-291,-134,-145,,
448,1552,14812,9280,30.22,-437,-206,-129,,
449,1540,14532,9024,30.18,-352,-128,-73,,
450,1652,14640,9104,30.13,-339,-167,-88,,
451,1468,14688,9264,30.08,-372,-167,-151,,
452,1448,14640,9196,30.13,-377,-180,-162,,
453,1400,14584,9244,30.13,-409,-204,-120,,
454,1544,14636,9144,30.18,-266,-141,-106,,
455,1396,14628,9292,30.18,-371,-225,-114,,
456,1584,14788,9236,30.13,-380,-205,-156,,
457,1380,14744,9096,30.13,-390,-159,-96,,
458,1536,14576,9080,30.22,-342,-121,-154,,
459,1644,14660,9408,30.04,-329,-145,-85,,
460,1528,14636,9232,30.08,-355,-134,-62,,
461,1648,14656,9252,30.13,-377,-167,-152,,
462,1536,14632,9332,30.18,-384,-169,-154,,
463,1588,14736,9128,30.27,-358,-157,-122,,
464,1436,14612,9232,30.13,-312,-176,-108,,
465,1520,14648,9396,30.18,-362,-193,-89,,
466,1388,14804,9204,30.22,-355,-229,-81,,
467,1684,14736,9108,30.18,-333,-148,-114,,
468,1600,14836,9112,30.22,-360,-172,-115,,
469,1592,14664,9328,30.13,-414,-160,-83,,
470,1444,14644,9208,30.18,-346,-167,-133,,
471,1528,14672,9256,30.22,-430,-224,-87,,
472,1492,14680,9212,30.18,-312,-179,-133,,
473,1564,14624,9244,30.18,-330,-155,-225,,
474,1448,14712,9304,30.13,-317,-188,-154,,
475,1572,14704,9160,30.08,-305,-176,-133,,
476,1564,14716,9208,30.18,-416,-238,-79,,
477,1512,14632,9260,30.22,-314,-160,-197,,
478,1708,14616,9308,30.18,-432,-247,-79,,
479,1612,14592,9204,30.13,-325,-164,-144,,
480,1504,14632,9196,30.08,-369,-148,-186,,
481,1572,14724,9296,30.13,-348,-178,-87,,
482,1584,14592,9256,30.18,-364,-194,-131,,
483,1544,14656,9324,30.13,-369,-165,-150,,
484,1580,14540,9200,30.18,-318,-199,-135,,
485,1548,14632,9252,30.18,-369,-146,-147,,
486,1512,14712,9332,30.13,-392,-162,-115,,
487,1512,14776,9208,30.13,-314,-93,-117,,
488,1648,14588,9280,30.22,-376,-232,-112,,
489,1464,14660,9336,30.13,-353,-125,-172,,
490,1528,14684,9296,30.18,-327,-153,-160,,
491,1520,14760,9200,30.27,-332,-142,-153,,
492,1516,14656,9196,30.22,-408,-159,-109,,
493,1384,14700,9500,30.18,-349,-204,-150,,
494,1480,14612,9300,30.22,-410,-204,-117,,
495,1540,14672,9236,30.22,-368,-162,-113,,
496,1404,14732,9248,30.18,-319,-185,-89,,
497,1476,14692,9300,30.22,-361,-149,-131,,
498,1448,14664,9228,30.22,-273,-89,-139,,
499,1472,14596,9180,30.13,-323,-118,-157,,
500,1636,14648,9172,30.22,-378,-155,-138,,
501,1416,14736,8964,30.18,-377,-198,-136,,
502,1532,14620,9352,30.27,-287,-152,-133,,
503,1656,14720,9124,30.22,-360,-149,-179,,
504,1488,14620,9184,30.22,-403,-151,-144,,
505,1404,14728,9188,30.18,-320,-179,-103,,
506,1480,14704,9392,30.18,-379,-280,-66,,
507,1500,14712,9180,30.22,-446,-226,-81,,
508,1496,14796,9292,30.18,-358,-155,-100,,
509,1464,14624,9280,30.13,-380,-216,-53,,
510,1516,14624,9368,30.32,-399,-185,-141,,
511,1480,14624,9324,30.22,-437,-280,-41,,
512,1356,14744,9168,30.18,-274,-225,-258,,
513,1584,14764,9224,30.22,-335,-173,-32,,
514,1460,14656,9168,30.18,-434,-196,-161,,
515,1560,14692,9316,30.27,-338,-112,-47,,
516,1492,14700,9208,30.22,-367,-226,-118,,
517,1452,14688,9236,30.18,-453,-249,-86,,
518,1532,14584,9196,30.13,-422,-250,-122,,
519,1520,14652,9332,30.22,-318,-156,-209,,
520,1504,14636,9288,30.18,-328,-109,-258,,
521,1500,14608,9304,30.32,-192,-39,-243,,
522,1472,14836,9204,30.22,-124,50,-282,,
523,1268,14804,9024,30.27,-184,103,-358,,
524,1256,14776,9380,30.22,-424,-206,3,,
525,1280,14788,9256,30.22,-284,-67,-172,,
526,1476,14704,9092,30.18,-222,-57,-178,,
527,1460,14636,9372,30.13,-306,-103,-68,,
528,1332,14648,9132,30.18,-354,-171,-99,,
529,1428,14820,9048,30.22,-282,-71,-239,,
530,1460,14640,9232,30.22,-58,45,-265,,
531,1260,14840,9168,30.22,-65,164,-417,,
532,1084,14912,8928,30.27,173,218,-401,,
533,1364,14880,9096,30.22,-175,63,-450,,
534,1016,14788,8960,30.22,-187,149,-410,,
535,992,14712,8864,30.18,-256,15,-173,,
536,1044,14728,9100,30.22,-276,103,-64,,
537,1156,14744,8844,30.22,-217,36,-51,,
538,1132,14892,8772,30.27,-304,-24,104,,
539,1244,14788,8904,30.18,-313,19,-69,,
540,1080,14884,9056,30.22,-372,-37,-82,,
541,1172,14864,8892,30.13,-160,75,-223,,
542,1184,14912,8792,30.18,-148,41,-82,,
543,1008,14860,8696,30.22,-147,-130,-41,,
544,1032,14768,8896,30.27,-376,-325,-59,,
545,1264,15188,8560,30.22,-32,205,-35,,
546,1128,14932,8500,30.22,-692,-669,286,,
547,1096,15016,8868,30.27,-133,86,-175,,
548,1216,14768,9024,30.22,-489,-373,79,,
549,1244,14996,8660,30.22,-281,-87,-251,,
550,1180,14832,8884,30.27,-510,-260,-133,,
551,1084,14860,8772,30.27,-427,-184,-200,,
552,1132,14772,8860,30.22,-454,-291,75,,
553,1136,14744,8960,30.27,-669,-423,74,,
554,1392,14892,8832,30.22,-529,-407,11,,
555,1400,14776,9072,30.22,-661,-455,-167,,
556,1268,14820,8832,30.22,-577,-286,-217,,
557,1232,14692,9064,30.27,-495,-282,-151,,
558,1260,14812,9012,30.18,-503,-318,-66,,
559,1376,14800,9040,30.22,-437,-208,-152,,
560,1220,14828,8900,30.27,-501,-240,-236,,
561,1380,14792,9052,30.27,-518,-271,-106,,
562,1148,14716,9176,30.22,-293,-102,-236,,
563,1276,14732,9004,30.18,-427,-222,-122,,
564,1368,14804,8956,30.18,-382,-187,-121,,
565,1360,14708,9160,30.22,-382,-167,-80,,
566,1240,14752,9068,30.27,-323,-115,-212,,
567,1284,14816,9128,30.13,-409,-221,-127,,
568,1292,14752,9008,30.22,-329,-159,-133,,
569,1312,14852,9132,30.18,-365,-211,-86,,
570,1304,14736,8980,30.22,-351,-162,-173,,
571,1216,14840,9072,30.22,-445,-274,-77,,
572,1288,14876,9088,30.18,-265,-149,-133,,
573,1324,14788,9008,30.22,-455,-270,-55,,
574,1188,14660,9128,30.22,-410,-154,-155,,
575,1380,14760,9084,30.18,-389,-193,-134,,
576,1236,14836,9048,30.32,-357,-168,-134,,
577,1388,14764,9152,30.22,-395,-305,-118,,
578,1224,14856,9048,30.22,-339,-133,-186,,
579,1212,14836,9060,30.27,-373,-229,-70,,
580,1340,14672,9312,30.22,-403,-224,-187,,
581,1300,14800,9044,30.18,-382,-196,-128,,
582,1216,14772,9292,30.27,-364,-144,-164,,
583,1220,14784,9052,30.22,-438,-256,-61,,
584,1320,14772,9080,30.18,-277,-76,-86,,
585,1384,14640,9284,30.22,-327,-150,-99,,
586,1316,14780,9084,30.18,-323,-103,-198,,
587,1368,14688,9196,30.27,-287,-109,-185,,
588,1388,14768,8880,30.32,-311,-129,-158,,
589,1196,14844,9068,30.37,-372,-77,-124,,
590,1340,14784,9252,30.22,-308,-117,-138,,
591,1348,14872,9044,30.32,-294,-112,-94,,
592,1328,14840,9076,30.18,-391,-165,-142,,
593,1192,14764,9076,30.22,-385,-115,-135,,
594,1292,14788,9112,30.18,-262,-86,-26,,
595,1228,14764,9016,30.32,-388,-116,-99,,
596,1172,14880,9140,30.18,-284,-44,-208,,
597,1312,14748,9068,30.22,-386,-111,-147,,
598,1320,14736,9044,30.27,-299,-133,-88,,
599,1088,14700,9140,30.13,-312,-173,-91,,
600,1344,14680,9256,30.18,-335,-101,-77,,
601,1312,14876,9100,30.22,-281,-95,-213,,
602,1172,14680,9132,30.22,-370,-76,-160,,
603,1276,14780,9088,30.32,-258,-100,-83,,
604,1300,14688,9076,30.27,-483,-237,-45,,
605,1380,14720,9068,30.27,-339,-136,-25,,
606,1276,14708,8980,30.27,-362,-159,-148,,
607,1220,14820,8944,30.32,-398,-202,-105,,
608,1272,14800,9012,30.22,-422,-192,-48,,
609,1140,14764,8984,30.37,-348,-195,-37,,
610,1216,14832,9168,30.22,-307,-168,-74,,
611,1280,14764,8972,30.27,-385,-167,-133,,
612,1272,14824,9108,30.22,-388,-203,-88,,
613,1264,14900,8976,30.37,-339,-197,-119,,
614,1308,14872,9072,30.27,-367,-199,-107,,
615,1196,14708,8920,30.22,-402,-214,-121,,
616,1332,14740,8912,30.22,-318,-160,-103,,
617,1232,14832,9200,30.27,-387,-194,-139,,
618,1256,14828,9196,30.22,-436,-256,-81,,
619,1256,14776,9076,30.27,-294,-176,-180,,
620,1220,14716,8956,30.18,-350,-176,-86,,
621,1360,14836,9104,30.32,-344,-197,-113,,
622,1264,14732,8948,30.27,-343,-147,-184,,
623,1220,14728,9124,30.18,-361,-155,-206,,
624,1208,14824,9080,30.32,-390,-199,-199,,
625,1344,14712,9104,30.32,-325,-120,-128,,
626,1280,14772,9132,30.27,-376,-236,-142,,
627,1148,14564,9160,30.32,-554,-338,-54,,
628,1300,14820,8916,30.32,-504,-373,166,,
629,1388,14704,9044,30.22,-485,-260,-96,,
630,1496,14804,9104,30.32,-276,-106,-240,,
631,1296,14852,9088,30.27,-177,38,-334,,
632,1192,14808,9080,30.32,-344,-194,-108,,
633,1064,14888,9208,30.27,-289,-118,-93,,
634,1292,14708,9044,30.27,-259,-124,-26,,
635,1288,14736,9064,30.32,-283,-140,-67,,
636,1248,14796,9048,30.37,-334,-197,-86,,
637,1180,14764,9000,30.32,-255,-136,-107,,
638,1224,14804,9136,30.22,-301,-153,-79,,
639,1312,14728,8984,30.27,-400,-160,-99,,
640,1204,14740,9088,30.32,-387,-164,-106,,
641,1192,14768,9040,30.32,-455,-227,-27,,
642,1208,14748,8964,30.37,-426,-248,-9,,
643,1516,14736,9016,30.41,-649,-310,190,,
644,1400,14848,9180,30.27,-198,-2,-153,,
645,1444,14696,9092,30.22,-135,136,-356,,
646,1460,14856,8832,30.27,-315,-121,-273,,
647,1352,14828,9084,30.27,-706,-530,-254,,
648,1004,14768,9028,30.32,-1130,-673,-374,,
649,1204,14708,9292,30.22,-910,-751,58,,
650,1448,14612,9552,30.18,-706,-466,-89,,
651,1188,14772,9300,30.32,-338,-137,-124,,
652,1424,14628,9324,30.32,-308,-250,38,,
653,1456,14628,9156,30.32,-237,-64,-198,,
654,1412,14672,9304,30.37,-234,-38,-232,,
655,1280,14640,9324,30.27,-73,46,-357,,
656,1212,14756,9268,30.27,-214,-85,-202,,
657,1424,14720,9080,30.22,-250,-47,-144,,
658,1316,14720,9208,30.18,-363,-149,-253,,
659,1152,14736,9040,30.27,-149,-16,-233,,
660,1256,14700,9180,30.32,-34,15,-170,,
661,1260,14728,8900,30.37,-238,-35,-216,,
662,1160,14660,9332,30.32,-254,-25,-117,,
663,1204,14760,9096,30.27,-455,-166,-142,,
664,1268,14756,9036,30.27,-478,-311,-102,,
665,1224,14644,9176,30.32,-386,-210,-151,,
666,1128,14804,9056,30.27,-305,-151,-79,,
667,1452,14660,9280,30.32,-307,-84,-169,,
668,1128,14672,9340,30.37,-276,-74,-255,,
669,1144,14732,9084,30.32,-188,7,-163,,
670,1280,14720,9056,30.27,-344,-150,-123,,
671,1088,14756,9172,30.32,-343,-160,-94,,
672,1068,14748,9016,30.22,-322,-133,-120,,
673,1124,14856,9088,30.27,-383,-228,-89,,
674,1032,14756,9180,30.32,-336,-180,-106,,
675,1288,14784,9116,30.22,-356,-169,-120,,
676,1120,14876,9164,30.27,-266,-206,-47,,
677,1112,14748,9228,30.22,-288,-126,-56,,
678,1264,14784,9200,30.27,-381,-182,-95,,
679,1080,14748,9004,30.41,-424,-186,-124,,
680,1140,14636,9172,30.32,-372,-164,-94,,
681,1104,14860,9072,30.27,-401,-205,-75,,
682,1284,14784,9144,30.32,-364,-188,0,,
683,1128,14692,8996,30.27,-295,-127,-111,,
684,1168,14720,9124,30.32,-316,-143,-117,,
685,1192,14748,9120,30.32,-383,-197,-184,,
686,1276,14804,9032,30.27,-342,-209,-56,,
687,1236,14780,9100,30.22,-354,-135,-222,,
688,1160,14728,9100,30.22,-388,-271,1,,
689,1180,14760,9064,30.32,-330,-153,-219,,
690,1176,14768,9228,30.32,-303,-195,-146,,
691,1204,14820,9104,30.27,-368,-168,-177,,
692,1292,14724,9056,30.37,-325,-181,-162,,
693,1280,14840,8920,30.22,-339,-189,-117,,
694,1200,14700,9232,30.37,-316,-149,-158,,
695,1196,14736,9124,30.37,-237,-50,-217,,
696,1348,14740,9000,30.32,-335,-216,-118,,
697,1248,14800,9148,30.37,-364,-152,-125,,
698,1208,14588,8936,30.27,-252,-154,-196,,
699,1092,14768,9008,30.32,-327,-195,-77,,
700,1268,14868,8872,30.37,-331,-146,-173,,
701,1104,14768,9028,30.32,-282,-127,-190,,
702,1164,14720,8876,30.22,-423,-242,-124,,
703,1140,14736,9160,30.32,-196,-66,-167,,
704,1240,14756,8992,30.37,-362,-160,-138,,
705,1144,14752,8952,30.32,-359,-168,-61,,
706,1128,14844,9180,30.27,-352,-214,-163,,
707,1136,14808,8808,30.27,-359,-175,-79,,
708,1188,14760,8992,30.32,-308,-128,-147,,
709,1280,14788,8992,30.32,-465,-289,-78,,
710,1096,14824,8928,30.27,-280,-131,-197,,
711,1188,14764,9144,30.32,-359,-174,-73,,
712,1188,14812,8996,30.27,-370,-148,-203,,
713,1072,14948,8680,30.41,-363,-217,-108,,
714,1060,14840,8968,30.22,-312,-123,-127,,
715,1100,14812,8936,30.32,-418,-228,-28,,
716,1156,14856,8940,30.27,-362,-125,-110,,
717,1268,14688,9020,30.27,-375,-225,-74,,
718,1216,14932,9004,30.32,-414,-207,-132,,
719,1124,14920,8964,30.37,-375,-167,-99,,
720,1184,14812,8924,30.27,-353,-186,-89,,
721,1132,14868,9064,30.41,-389,-153,-108,,
722,1152,14852,8936,30.27,-345,-269,-15,,
723,1212,14772,9284,30.32,-342,-145,-120,,
724,1144,14904,9076,30.32,-357,-196,-136,,
725,1196,14836,9088,30.27,-375,-207,-104,,
726,1228,14816,9016,30.32,-389,-239,-60,,
727,1252,14792,9000,30.32,-364,-149,-110,,
728,1312,14804,9048,30.37,-370,-225,-123,,
729,1232,14796,9112,30.32,-364,-212,-169,,
730,1264,14856,9072,30.22,-337,-192,-178,,
731,1212,14832,8960,30.27,-310,-163,-169,,
732,1300,14760,9132,30.27,-308,-153,-166,,
733,1148,14860,8896,30.32,-398,-242,-83,,
734,1224,14784,9104,30.27,-349,-158,-221,,
735,1184,14768,8940,30.27,-338,-140,-167,,
736,1204,14716,8940,30.32,-370,-162,-170,,
737,1196,14784,8972,30.32,-343,-164,-94,,
738,1140,14840,8964,30.27,-365,-212,-162,,
739,1168,14728,9024,30.32,-367,-167,-116,,
740,1160,14752,9056,30.32,-333,-148,-157,,
741,1184,14784,8856,30.32,-339,-156,-153,,
742,1148,14808,8988,30.37,-278,-109,-121,,
743,1224,14708,8988,30.37,-388,-185,-120,,
744,1052,14816,8972,30.32,-339,-198,-132,,
745,1228,14856,8808,30.37,-424,-214,-94,,
746,1176,14760,8864,30.37,-312,-157,-201,,
747,1108,14800,8912,30.32,-377,-135,-156,,
748,1156,14832,9076,30.32,-365,-235,-133,,
749,1212,14824,9024,30.37,-423,-192,-124,,
750,1208,14888,8928,30.27,-284,-137,-101,,
751,1224,14760,9020,30.32,-373,-167,-161,,
752,1128,14752,8980,30.32,-309,-133,-78,,
753,1144,14768,9100,30.32,-363,-213,-88,,
754,1120,14800,8992,30.32,-400,-217,-82,,
755,1220,14736,8932,30.27,-335,-198,-92,,
756,1268,14756,9100,30.32,-385,-221,-51,,
757,1204,14776,8948,30.27,-406,-195,-165,,
758,1104,14872,9052,30.37,-293,-139,-190,,
759,1144,14828,9048,30.41,-353,-121,-53,,
760,1120,14832,8804,30.37,-274,-79,-146,,
761,1284,14788,9136,30.37,-380,-224,-91,,
762,1236,14820,9012,30.32,-326,-137,-124,,
763,1124,14756,8924,30.37,-286,-114,-107,,
764,1292,14708,8928,30.32,-291,-123,-180,,
765,1092,14900,8980,30.32,-356,-222,-151,,
766,1076,14796,8948,30.32,-248,-120,-183,,
767,1152,14760,8856,30.37,-341,-184,-102,,
768,1064,14852,8936,30.37,-395,-180,-115,,
769,1120,14896,8948,30.32,-381,-163,-100,,
770,1228,14756,8892,30.32,-394,-247,-135,,
771,1096,14800,9068,30.27,-359,-190,-127,,
772,1220,14844,8940,30.37,-417,-179,-110,,
773,1188,14736,9192,30.32,-328,-146,-171,,
774,1304,14772,9632,30.32,-182,-32,-166,,
775,1236,14736,9048,30.37,-363,-214,-103,,
776,1040,14912,8988,30.41,-347,-193,-115,,
777,1164,14788,9076,30.22,-388,-248,-140,,
778,1032,14704,9004,30.27,-384,-201,-116,,
779,1268,14800,9184,30.41,-317,-182,-130,,
780,1112,14808,9100,30.41,-348,-153,-90,,
781,988,14860,8868,30.27,-333,-171,-154,,
782,1080,14796,9140,30.32,-361,-163,-94,,
783,1200,14772,8880,30.37,-448,-221,-22,,
784,1176,14728,9084,30.22,-422,-245,-49,,
785,1116,14820,9024,30.37,-385,-194,-112,,
786,1132,14740,8968,30.37,-325,-160,-121,,
787,1172,14808,8928,30.32,-296,-122,-100,,
788,1156,14772,9068,30.32,-371,-193,-85,,
789,1124,14732,8904,30.27,-344,-176,-100,,
790,1212,14772,8920,30.41,-367,-213,-159,,
791,1256,14900,8836,30.41,-348,-181,-215,,
792,1128,14828,9008,30.32,-365,-201,-123,,
793,1096,14816,9068,30.37,-334,-229,-133,,
794,1204,14768,8972,30.37,-297,-136,-96,,
795,1096,14764,9028,30.32,-327,-169,-71,,
796,1148,14788,9096,30.37,-355,-186,-178,,
797,1128,14788,8968,30.32,-374,-216,-147,,
798,1296,14968,9112,30.41,-265,-15,-205,,
799,1260,14784,8956,30.37,-347,-181,-82,,
800,1148,14912,9048,30.32,-368,-185,-142,,
801,1292,14712,9084,30.32,-375,-168,-87,,
802,1272,14776,8892,30.32,-332,-147,-171,,
803,1108,14772,8920,30.32,-396,-229,-163,,
804,1140,14792,9164,30.32,-362,-149,-163,,
805,1132,14836,8984,30.37,-402,-242,-101,,
806,1160,14780,9156,30.37,-386,-180,-89,,
807,1120,14852,8932,30.41,-339,-194,-113,,
808,1144,14876,8860,30.41,-365,-142,-151,,
809,1192,14728,8972,30.46,-339,-160,-153,,
810,1184,14740,9020,30.46,-449,-265,-97,,
811,1012,14828,8960,30.32,-285,-109,-124,,
812,1420,14716,9124,30.37,-275,-117,-28,,
813,1220,14840,8996,30.37,-406,-237,-124,,
814,1144,14856,8880,30.32,-428,-222,-126,,
815,1156,14924,9104,30.32,-378,-193,-121,,
816,1196,14900,8852,30.37,-413,-222,-54,,
817,1244,14812,9136,30.32,-412,-205,-94,,
818,1128,14820,8908,30.41,-353,-191,-105,,
819,1112,14832,8984,30.37,-392,-198,-114,,
820,1188,14772,8952,30.37,-325,-139,-186,,
821,1160,14728,8904,30.37,-362,-175,-79,,
822,1072,14808,9000,30.32,-308,-183,-146,,
823,1228,14812,8956,30.37,-383,-216,-40,,
824,1256,14872,9004,30.37,-349,-168,-143,,
825,1296,14808,9092,30.32,-337,-141,-192,,
826,1164,14796,9008,30.32,-329,-197,-161,,
827,1160,14844,8904,30.37,-298,-181,-103,,
828,1124,14916,9004,30.37,-370,-143,-150,,
829,1188,14808,9148,30.41,-378,-191,-158,,
830,1244,14840,8980,30.32,-308,-158,-160,,
831,1232,14812,9008,30.27,-388,-168,-211,,
832,1136,14884,9104,30.37,-365,-192,-161,,
833,1100,14772,8920,30.41,-282,-135,-150,,
834,1212,14800,9092,30.41,-377,-183,-152,,
835,1128,14768,8852,30.46,-380,-203,-167,,
836,1188,14852,8808,30.27,-350,-111,-157,,
837,984,14820,8856,30.41,-357,-159,-123,,
838,1080,14840,9020,30.27,-357,-226,-148,,
839,1084,14864,8980,30.37,-381,-186,-92,,
840,1156,14816,8988,30.41,-293,-160,-115,,
841,1056,14880,8980,30.37,-338,-137,-144,,
842,1084,14796,9048,30.27,-336,-206,-163,,
843,1160,14740,9008,30.37,-349,-153,-142,,
844,1220,14800,8956,30.41,-295,-173,-133,,
845,1108,14808,9032,30.41,-232,-6,-149,,
846,1124,14760,8960,30.22,-347,-164,-79,,
847,1144,14900,8900,30.41,-339,-192,-142,,
848,1064,14852,8756,30.46,-379,-150,-73,,
849,1076,14824,8836,30.32,-369,-202,-151,,
850,1140,14872,9008,30.41,-433,-231,-83,,
851,1208,14920,8992,30.37,-361,-140,-86,,
852,1164,14776,9152,30.41,-360,-158,-132,,
853,1152,14792,8976,30.37,-280,-102,-141,,
854,1180,14760,8940,30.37,-272,-135,-194,,
855,1356,14720,9096,30.37,-176,-7,-173,,
856,1116,14796,8800,30.37,-383,-237,-31,,
857,1192,14812,8920,30.41,-344,-209,-52,,
858,1216,14888,8940,30.22,-469,-286,-125,,
859,1132,14868,8920,30.37,-353,-216,-129,,
860,1084,14780,9044,30.46,-386,-198,-126,,
861,1164,14872,8900,30.37,-378,-233,-66,,
862,1176,14816,8988,30.32,-319,-151,-187,,
863,1180,14796,8884,30.32,-372,-179,-92,,
864,1128,14848,9020,30.37,-343,-176,-118,,
865,1196,14788,8872,30.32,-378,-157,-158,,
866,1016,14828,8924,30.32,-365,-251,-123,,
867,1172,14892,9008,30.41,-305,-178,-159,,
868,1068,14808,8960,30.37,-360,-175,-139,,
869,1120,14744,8920,30.27,-329,-154,-183,,
870,1112,14820,8980,30.37,-342,-151,-175,,
871,1052,14824,8948,30.41,-362,-201,-150,,
872,1184,14840,8940,30.32,-412,-193,-155,,
873,1184,14912,8928,30.37,-314,-199,-138,,
874,1164,14868,8908,30.27,-385,-195,-92,,
875,1140,14880,9000,30.41,-361,-163,-149,,
876,1088,14860,8908,30.41,-333,-154,-150,,
877,1096,14696,8840,30.37,-316,-160,-111,,
878,1188,14780,8900,30.37,-328,-159,-185,,
879,1068,14844,8916,30.41,-363,-216,-115,,
880,1164,14764,8880,30.32,-350,-142,-128,,
881,1128,14840,8968,30.37,-322,-130,-113,,
882,1176,14840,8908,30.37,-431,-272,-140,,
883,1096,14936,8884,30.32,-333,-168,-63,,
884,1144,14968,8832,30.32,-353,-188,-64,,
885,1156,14812,8884,30.46,-347,-163,-90,,
886,1120,14844,8856,30.32,-377,-179,-141,,
887,1088,14896,8868,30.37,-367,-200,-143,,
888,1168,14860,8960,30.27,-358,-219,-79,,
889,1216,14784,8908,30.41,-315,-154,-122,,
890,1056,14840,8916,30.41,-329,-148,-29,,
891,1216,14816,8976,30.37,-314,-150,-131,,
892,1128,14912,8892,30.32,-354,-189,-187,,
893,1176,14932,8852,30.41,-398,-189,-136,,
894,1068,14716,8852,30.37,-294,-212,-102,,
895,1172,14876,8980,30.37,-383,-173,-108,,
896,1160,14796,8980,30.37,-357,-186,-123,,
897,1200,14872,9048,30.41,-322,-163,-144,,
898,1192,14884,8976,30.32,-429,-240,-114,,
899,1216,14904,8784,30.27,-356,-179,-137,,
900,1200,14808,8924,30.46,-312,-139,-89,,
901,1076,14880,8952,30.41,-324,-165,-74,,
902,1088,14716,8836,30.27,-350,-141,-129,,
903,1208,14892,9080,30.41,-331,-152,-197,,
904,1060,14788,8920,30.32,-388,-227,-175,,
905,1140,14928,8872,30.32,-316,-131,-105,,
906,1164,14776,8928,30.37,-341,-156,-136,,
907,1160,14772,8916,30.27,-373,-212,-108,,
908,1100,14944,8972,30.32,-342,-150,-159,,
909,1120,14980,8952,30.41,-359,-195,-99,,
910,1140,14788,8928,30.27,-345,-174,-109,,
911,1084,14836,8884,30.37,-310,,,,
912,1192,14852,8936,30.46,-348,-153,-154,,
913,1096,14852,8856,30.32,-334,-235,-130,,
914,1144,14856,8916,30.41,-323,-147,-182,,
915,1180,14764,9008,30.46,-448,-243,-135,,
916,1140,14936,8820,30.41,-314,-132,-180,,
917,1216,14816,8972,30.37,-290,-157,-95,,
918,1096,14880,8976,30.37,-396,-232,-173,,
919,1192,14944,8852,30.41,-349,-162,-104,,
920,1064,14864,8936,30.41,-351,-181,-93,,
921,1012,14812,9080,30.37,-362,-175,-141,,
922,1096,14756,8928,30.41,-398,-216,-89,,
923,1128,14892,8908,30.46,-395,-202,-163,,
924,1136,14840,8844,30.41,-378,-130,-115,,
925,1100,14840,8940,30.37,-346,-175,-103,,
926,1020,14828,8892,30.41,-346,-205,-130,,
927,1212,14876,8960,30.37,-441,-184,-117,,
928,1048,14840,8852,30.41,-282,-132,-144,,
929,1224,14816,9068,30.37,-355,-186,-122,,
930,1164,14812,8936,30.32,-414,-244,-134,,
931,964,14856,8928,30.41,-378,-171,-155,,
932,1080,14984,8932,30.41,-345,-172,-130,,
933,1196,14796,8796,30.32,-416,-196,-136,,
934,1192,14836,8924,30.46,-349,-231,-108,,
935,1144,14816,8876,30.32,-379,-184,-150,,
936,1084,14856,9012,30.37,-343,-208,-151,,
937,1140,14900,8892,30.41,-340,-123,-123,,
938,1116,14920,8944,30.46,-364,-149,-87,,
939,1184,14824,8968,30.41,-343,-228,-129,,
940,1036,14916,8836,30.46,-337,-142,-97,,
941,1140,14848,8936,30.32,-320,-154,-122,,
942,1036,14816,8924,30.37,-388,-229,-169,,
943,1176,14852,8772,30.41,-446,-171,-147,,
944,1020,14912,8944,30.46,-319,-148,-79,,
945,1092,14784,9096,30.32,-333,-195,-161,,
946,1140,14792,8944,30.37,-386,-187,-113,,
947,1200,14856,8876,30.37,-378,-171,-161,,
948,1168,14800,8872,30.41,-335,-201,-132,,
949,1060,14820,8860,30.37,-390,-213,-117,,
950,1232,14848,8944,30.41,-383,-218,-81,,
951,1076,14884,8912,30.46,-318,-157,-147,,
952,1236,14812,9024,30.41,-374,-238,-50,,
953,1132,14932,8840,30.32,-221,-85,-256,,
954,1056,14840,8960,30.46,-371,-132,-141,,
955,1148,14844,8816,30.32,-366,-196,-195,,
956,1152,14860,8884,30.41,-333,-221,-138,,
957,1256,14808,8884,30.46,-389,-210,-105,,
958,1180,14872,8956,30.32,-381,-174,-150,,
959,1160,14880,8940,30.37,-378,-217,-125,,
960,1212,14980,8848,30.41,-353,-171,-190,,
961,1044,14924,8856,30.46,-313,-182,-100,,
962,1132,14920,9116,30.41,-326,-149,-147,,
963,1108,14792,8864,30.41,-367,-230,-74,,
964,1128,14856,8872,30.37,-377,-119,-202,,
965,1028,14852,8924,30.41,-395,-207,-155,,
966,976,14880,9036,30.46,-369,-189,-170,,
967,1120,14892,8860,30.41,-325,-169,-77,,
968,1068,14924,9060,30.32,-368,-179,-109,,
969,1160,14844,8928,30.46,-414,-200,-89,,
970,1144,14800,9000,30.41,-375,-180,-143,,
971,1172,14908,8964,30.46,-368,-195,-146,,
972,1076,14936,8836,30.46,-347,-176,-125,,
973,1180,14760,9036,30.51,-355,-175,-164,,
974,1028,14896,8860,30.46,-290,-118,-70,,
975,1136,14924,8988,30.41,-366,-159,-154,,
976,1048,14788,8844,30.46,-318,-198,-145,,
977,1096,14892,8920,30.41,-412,-207,-157,,
978,996,14912,8740,30.37,-345,-189,-125,,
979,992,14872,9064,30.41,-372,-182,-110,,
980,1164,14876,8920,30.37,-377,-166,-64,,
981,1224,14856,8876,30.41,-338,-192,-176,,
982,1116,14720,8940,30.46,-372,-165,-130,,
983,1028,14820,8852,30.32,-356,-133,-147,,
984,1040,14908,8796,30.46,-318,-127,-121,,
985,964,14892,8848,30.41,-299,-111,-200,,
986,1084,14932,8940,30.37,-471,-285,-45,,
987,1092,14904,8868,30.41,-365,-145,-126,,
988,1056,14808,8932,30.46,-307,-129,-163,,
989,1116,14944,9072,30.41,-444,-260,-75,,
990,1172,14924,8872,30.46,-342,-176,-76,,
991,1316,14696,8952,30.41,-399,-223,-84,,
992,1180,14904,9092,30.51,-355,-213,-85,,
993,1068,14884,8932,30.46,-411,-200,-156,,
994,1052,14832,8748,30.41,-415,-171,-164,,
995,1096,14800,8948,30.46,-379,-242,-58,,
996,1120,14884,8960,30.41,-341,-206,-113,,
997,972,14848,8924,30.46,-361,-188,-87,,
998,1172,14956,8876,30.41,-389,-212,-124,,
999,1204,14844,8860,30.46,-315,-168,-197,,
1000,980,14788,8936,30.41,-388,-217,-131,,
1001,1084,14880,8968,30.37,-306,-141,-117,,
1002,1180,14812,8784,30.41,-365,-153,-146,,
1003,1144,14740,8896,30.37,-350,-179,-72,,
1004,1144,14896,8968,30.41,-292,-157,-202,,
1005,1088,14836,8904,30.46,-307,-147,-199,,
1006,1032,14840,8824,30.41,-384,-171,-135,,
1007,1128,14844,8968,30.46,-359,-190,-100,,
1008,1000,14836,8744,30.46,-302,-156,-172,,
1009,1192,14828,8968,30.41,-350,-171,-212,,
1010,1120,14736,8824,30.46,-365,-184,-154,,
1011,1100,14944,8920,30.41,-370,-140,-169,,
1012,1024,14768,8860,30.6,-363,-178,-98,,
1013,1076,14680,8920,30.37,-332,-156,-114,,
1014,1112,14864,8880,30.51,-409,-182,-147,,
1015,1132,14892,9032,30.41,-322,-167,-141,,
1016,1120,14864,8972,30.46,-364,-153,-148,,
1017,1168,14872,8964,30.37,-349,-189,-96,,
1018,1036,14840,8944,30.41,-341,-205,-112,,
1019,1224,14808,8964,30.37,-281,-82,-190,,
1020,972,14796,8884,30.41,-398,-208,-122,,
1021,1060,14844,8832,30.41,-382,-182,-154,,
1022,1076,14796,8884,30.46,-360,-173,-151,,
1023,1120,14768,8936,30.41,-413,-198,-96,,
1024,1132,14964,8968,30.41,-386,-246,-39,,
1025,1216,14828,8776,30.37,-405,-201,-89,,
1026,1268,14852,8956,30.41,-367,-212,-101,,
1027,1084,14780,8848,30.46,-400,-185,-101,,
1028,1156,14808,8912,30.46,-321,-143,-121,,
1029,1108,14880,8884,30.46,-340,-154,-152,,
1030,1048,14876,8792,30.41,-393,-193,-166,,
1031,1084,14824,8892,30.41,-312,-175,-81,,
1032,1228,14796,8952,30.37,-396,-208,-115,,
1033,1156,14844,8988,30.51,-417,-202,-147,,
1034,1216,14844,8912,30.51,-412,-211,-92,,
1035,1028,14856,8768,30.46,-315,-189,-162,,
1036,1180,14792,8932,30.41,-394,-201,-107,,
1037,1228,14840,8860,30.41,-382,-212,-124,,
1038,1104,14828,8956,30.46,-361,-179,-149,,
1039,1164,14796,8928,30.46,-318,-136,-121,,
1040,1184,14744,8864,30.41,-349,-189,-121,,
1041,1148,14788,8812,30.41,-363,-167,-125,,
1042,1040,14860,8968,30.46,-339,-141,-162,,
1043,1156,14856,8972,30.46,-330,-166,-137,,
1044,1132,14900,8868,30.41,-376,-187,-160,,
1045,1188,14912,8844,30.41,-370,-172,-145,,
1046,1140,14836,8816,30.37,-332,-189,-139,,
1047,1172,14836,9008,30.46,-276,-127,-199,,
1048,1212,14884,8948,30.41,-371,-207,-112,,
1049,1132,14928,8960,30.41,-343,-190,-135,,
1050,1100,14852,8728,30.46,-300,-128,-160,,
1051,1108,14848,8964,30.51,-337,-186,-152,,
1052,1136,14880,8896,30.51,-381,-175,-86,,
1053,1032,14856,8892,30.46,-318,-176,-145,,
1054,1232,14796,8880,30.46,-342,-179,-100,,
1055,1188,14808,8828,30.46,-372,-229,-135,,
1056,1060,14800,8832,30.41,-363,-120,-101,,
1057,1000,14988,8892,30.41,-276,-165,-165,,
1058,1072,14820,8920,30.46,-381,-266,-120,,
1059,1088,14872,8908,30.46,-381,-146,-93,,
1060,1204,15368,8884,30.41,-125,58,-153,,
1061,1124,14884,8780,30.46,-336,-100,-132,,
1062,1076,14824,8884,30.41,-313,-152,-130,,
1063,1064,14836,8796,30.51,-329,-230,-76,,
1064,1116,14788,8756,30.37,-309,-160,-154,,
1065,1040,14876,8876,30.51,-376,-193,-65,,
1066,1052,14872,8816,30.41,-339,-136,-188,,
1067,1068,14896,8896,30.51,-329,-199,-190,,
1068,1008,14780,8900,30.46,-337,-157,-120,,
1069,1164,14840,9004,30.37,-360,-164,-135,,
1070,1160,14836,8668,30.51,-436,-180,-172,,
1071,1084,14900,8896,30.51,-309,-141,-166,,
1072,1060,14764,8968,30.41,-331,-164,-150,,
1073,1116,14896,8712,30.46,-351,-132,-153,,
1074,1080,14956,8844,30.46,-355,-151,-123,,
1075,1188,14672,8964,30.55,-256,-145,-233,,
1076,1060,14844,8928,30.41,-370,-144,-106,,
1077,1104,14872,8752,30.51,-276,-80,-178,,
1078,1032,14892,8820,30.46,-308,-129,-111,,
1079,1028,14868,8920,30.55,-382,-111,-167,,
1080,996,14892,8760,30.51,-314,-127,-114Ó                         ,,
Sample,aX,aY,az,Temp,gX,gY,gz                                                   ,,
1,1596,14752,9172,29.61,-285,-156,-100,,
2,1728,14768,9180,29.71,-419,-214,-111,,
3,1584,14616,9140,29.66,-318,-135,-184,,
4,1564,14760,9176,29.66,-332,-137,-224,,
5,1572,14744,9212,29.75,-340,-153,-133,,
6,1596,14728,8952,29.71,-318,-136,-178,,
7,1640,14772,9076,29.66,-322,-195,-90,,
8,1604,14772,9060,29.57,-366,-206,-144,,
9,1584,14712,9184,29.66,-359,-146,-112,,
10,1636,14712,8984,29.61,-296,-162,-228,,
11,1648,14728,9140,29.66,-323,-147,-129,,
12,1564,14668,9188,29.71,-397,-146,-200,,
13,1620,14692,9104,29.57,-385,-165,-104,,
14,1588,14672,9224,29.71,-389,-181,-85,,
15,1660,14852,9072,29.71,-377,-192,-104,,
16,1656,14764,9204,29.66,-411,-222,-79,,
17,1512,14780,9188,29.57,-259,-107,-167,,
18,1616,14760,9352,29.66,-324,-132,-140,,
19,1676,14696,9200,29.71,-370,-160,-199,,
20,1640,14780,9160,29.57,-355,-174,-104,,
21,1512,14772,9008,29.61,-353,-231,-130,,
22,1504,14800,9132,29.71,-460,-245,-118,,
23,1472,14744,9204,29.75,-373,-206,-81,,
24,1636,14812,9288,29.66,-325,-125,-84,,
25,1632,14684,9288,29.71,-470,-303,-107,,
26,1576,14800,9124,29.75,-344,-217,-129,,
27,1496,14728,8988,29.71,-468,-323,-32,,
28,1472,14772,9228,29.61,-437,-368,-80,,
29,1652,14792,9040,29.71,-628,-505,151,,
30,1548,14820,9216,29.57,-235,-203,-114,,
31,1628,14632,8744,29.8,-1331,-1150,47,,
32,1936,14284,9596,29.75,-693,-280,263,,
33,1648,14700,9360,29.66,-98,292,-66,,
34,1680,14728,9184,29.66,-302,-126,127,,
35,1812,14692,9224,29.66,-300,-90,-135,,
36,1616,14684,9116,29.71,-323,-185,-300,,
37,1712,14540,9436,29.61,-424,-314,-57,,
38,1708,14548,9392,29.66,-310,-136,-86,,
39,1676,14632,9380,29.66,-329,-91,-113,,
40,1860,14732,9172,29.71,-286,-129,-143,,
41,1812,14720,9388,29.75,-361,-162,-225,,
42,1620,14536,9292,29.71,-339,-217,-106,,
43,1624,14712,9244,29.61,-343,-117,-203,,
44,1696,14684,9212,29.66,-368,-214,-100,,
45,1736,14660,9112,29.71,-341,-221,-128,,
46,1740,14656,9264,29.66,-410,-202,-83,,
47,1736,14724,9348,29.66,-334,-190,-143,,
48,1528,14648,9184,29.71,-427,-256,-166,,
49,1712,14480,9280,29.75,-313,-163,-156,,
50,1648,14656,9144,29.8,-379,-246,84,,
51,1804,14588,9360,29.71,-413,-269,-39,,
52,1872,14936,9204,29.75,-481,-276,-209,,
53,1972,14764,9256,29.75,-768,-828,-51,,
54,1600,14508,9416,29.61,-508,301,-428,,
55,1184,14616,9436,29.71,235,751,-124,,
56,1692,14712,9140,29.71,-327,-314,346,,
57,2116,14520,9272,29.8,-736,-632,106,,
58,2208,14664,9108,29.66,-707,-585,-89,,
59,2116,14588,9284,29.75,-544,-429,-437,,
60,1744,14784,9244,29.71,-523,-256,-659,,
61,1540,14368,9588,29.66,-672,-147,-490,,
62,1380,14448,9768,29.71,-256,90,-21,,
63,1748,14904,9348,29.66,-203,228,225,,
64,1976,14672,9152,29.66,#NAME?,,,,