0,60,-15956,33.33,1947,-451,-344,
746,-840,1968,-13720,33.47,2276,377,281
747,-1384,1216,-                                                          ,,,,
Sample,aX,aY,az,Temp,gX,gY,gz                                                   
1,7088,6300,-11692,33.38,-618,-77,-156
2,7280,6176,-11936,33.47,605,-66,60
3,7240,6064,-11744,33.42,-727,-155,-205
4,7180,6312,-11896,33.33,-550,-17,-130
5,7088,6440,-11628,33.42,-939,-318,-248
6,7116,6316,-11780,33.38,-325,-444,-145
7,7216,6256,-11804,33.38,-540,-428,-184
8,7200,6460,-11956,33.33,-570,-496,-169
9,7172,6420,-11900,33.38,-222,-268,-142
10,7008,6364,-11800,33.38,-473,-72,-211
11,7132,6292,-12008,33.33,-775,278,-240
12,7184,6548,-11828,33.33,-590,211,-143
13,7220,6424,-11660,33.42,28,-15,23
14,7304,6468,-11832,33.38,-280,214,-108
±                                                                               ,,,,,,,
Sample,aX,aY,az,Temp,gX,gY,gz                                                   
1,7168,6340,-12060,33.33,-350,-297,-118
2,7152,6196,-11828,33.33,-402,-185,-138
3,7100,6292,-11828,33.38,-315,-242,-129
4,7048,6348,-11840,33.38,-340,-224,-135
5,7060,6388,-11912,33.33,-344,-225,-151
6,7120,6332,-11912,33.42,-382,-192,-143
7,7172,6228,-11992,33.28,-293,-274,-129
8,7240,6296,-12000,33.42,-371,-189,-132
9,7212,6280,-11712,33.24,-347,-235,-85
10,7124,6304,-11952,33.33,-343,-126,-131
11,7152,6324,-11904,33.38,-306,-248,-142
12,7160,6400,-11712,33.42,-443,-124,-151
13,7100,6284,-11768,33.28,-337,-221,-151
14,7096,6284,-11832,33.33,-322,-225,-138
15,7156,6256,-11976,33.38,-356,-94,-114
16,7136,6300,-11976,33.47,-300,-106,-157
17,7180,6264,-11732,33.52,-350,-147,-133
18,7184,6288,-11700,33.38,-326,-195,-145
19,7132,6316,-11968,33.42,-366,-260,-156
20,7164,6312,-11960,33.38,-380,-185,-133
21,7228,6356,-11812,33.38,-358,-271,-136
22,7080,6268,-11808,33.33,-326,-228,-162
23,7160,6228,-11780,33.38,-346,-251,-133
24,7064,6244,-11888,33.33,-277,-362,-112
25,7088,6264,-11892,33.38,-131,19,-59
26,7188,6280,-11772,33.33,-291,-174,-121
27,7120,6228,-12020,33.47,-372,-155,-148
28,7188,6260,-11860,33.42,-346,-210,-131
29,7120,6264,-11868,33.28,-380,-264,-160
30,7092,6336,-11736,33.33,-410,-204,-174
31,7148,6316,-11956,33.38,-322,-190,-144
32,7168,6204,-11752,33.38,-420,-157,-121
33,7204,6284,-11788,33.42,-332,-268,-142
34,7164,6296,-11908,33.38,-403,-255,-135
35,7088,6300,-11912,33.42,-324,-195,-131
36,7188,6240,-11852,33.38,-393,-146,-135
37,7060,6300,-11784,33.42,-332,-170,-97
38,7044,6260,-12004,33.33,-367,-180,-135
39,7168,6268,-12028,33.38,-382,-202,-132
40,7100,6368,-12024,33.33,-284,-321,-138
41,7144,6268,-11704,33.47,-265,-65,-106
42,7272,6224,-11820,33.38,-406,-189,-147
43,7000,6348,-11836,33.33,-351,-327,-143
44,7108,6296,-11988,33.38,-332,-189,-132
45,7180,6272,-11900,33.42,-348,-214,-114
46,7184,6340,-11824,33.38,-358,-100,-117
47,7144,6324,-11828,33.28,-346,-198,-133
48,7096,6312,-11844,33.42,-342,-160,-138
49,7196,6268,-11972,33.38,-454,-176,-119
50,7056,6300,-11936,33.42,-317,-239,-144
51,7204,6240,-11792,33.38,-347,-130,-127
52,7240,6168,-11884,33.33,-392,-213,-138
53,7040,6280,-11912,33.38,-358,-210,-149
54,7168,6196,-11972,33.33,-359,-211,-138
55,7120,6272,-11928,33.42,-345,-215,-151
56,7168,6236,-11784,33.38,-348,-189,-143
57,7092,6384,-11912,33.42,-387,-57,-174
58,7160,6272,-11880,33.42,-252,-180,-152
59,7148,6240,-11828,33.38,-282,-101,-143
60,7124,6184,-11768,33.42,-369,-173,-107
61,7176,6364,-12184,33.47,-371,-156,-116
62,7176,6204,-11716,33.33,-353,-261,-139
63,7108,6220,-11816,33.38,-263,-358,-184
64,7100,6356,-11824,33.42,-416,-72,-140
65,7144,6336,-11876,33.42,-334,-102,-153
66,7192,6292,-11996,33.38,-410,-96,-153
67,7144,6252,-11836,33.33,-371,-168,-114
68,7048,6292,-11876,33.42,-305,-227,-125
69,7200,6288,-11724,33.47,-439,-332,-187
70,7132,6260,-11720,33.42,-348,-237,-138
71,7088,6384,-11684,33.28,-430,-133,-123
72,7208,6200,-12048,33.33,-380,-221,-159
73,7164,6260,-11688,33.38,-332,-176,-156
74,7152,6348,-11892,33.33,-273,-138,-115
75,7136,6404,-11852,33.33,-360,-45,-103
76,7160,6292,-11836,33.38,-376,-234,-159
77,7244,6260,-11964,33.42,-343,-160,-201
78,7232,6316,-11808,33.28,-329,-104,-128
79,7224,6256,-11776,33.33,-328,-237,-116
80,7100,6376,-11872,33.38,24,-327,-47
81,7140,6132,-11936,33.42,-392,-218,-117
82,7176,6192,-11944,33.38,-386,-158,-132
83,7256,6204,-11904,33.42,-414,-94,-158
84,7128,6152,-11940,33.38,-383,-97,-160
85,7172,6328,-11860,33.33,-367,-243,-172
86,7084,6304,-11900,33.38,-399,-155,-171
87,7244,6200,-11880,33.33,-357,-246,-142
88,7184,6240,-12012,33.33,-347,-244,-171
89,7108,6156,-11836,33.33,-277,-339,-164
90,7104,6216,-11968,33.38,-114,-89,-57
91,7128,6204,-11836,33.38,-360,-81,-77
92,7196,6164,-11896,33.38,-378,-196,-157
93,7156,6048,-12008,33.33,-368,-222,-158
94,7312,6144,-11916,33.42,-334,-151,-149
95,7220,6272,-11920,33.38,-428,-291,-206
96,7100,6336,-11764,33.42,-358,-347,-145
97,7144,6240,-12020,33.47,-382,-196,-121
98,7244,6188,-11944,33.33,-338,-219,-135
99,7200,6264,-11688,33.42,-392,-149,-120
100,7108,6204,-12072,33.42,-290,-295,-121
101,7056,6180,-12012,33.38,-334,-346,-139
102,7108,6380,-11928,33.33,-376,-35,-82
103,7236,6144,-12024,33.38,-233,-265,-109
104,7172,6096,-11872,33.42,-410,-127,-142
105,7220,6228,-11816,33.38,-370,-287,-125
106,7216,6124,-11888,33.33,-336,-260,-139
107,7024,6308,-11984,33.38,-446,-108,-140
108,7072,6180,-11804,33.28,-388,-126,-135
109,7096,6260,-11792,33.33,-358,-205,-140
110,7116,6168,-11896,33.38,-378,-180,-101
111,7100,6280,-11840,33.28,-371,-144,-147
112,7116,6252,-12020,33.33,-345,-178,-117
113,7128,6204,-11872,33.38,-347,-297,-121
114,7036,6080,-11876,33.33,-264,-90,-114
115,7184,6256,-11692,33.38,-350,-150,-100
116,7152,6188,-11860,33.33,-319,-212,-132
117,7136,6232,-11908,33.33,-357,-233,-102
118,7188,6228,-12040,33.47,-416,-176,-116
119,7224,6120,-11948,33.33,-360,-236,-130
120,7104,6136,-12032,33.38,-401,-155,-139
121,7120,6252,-11828,33.38,-345,-184,-150
122,7080,6212,-11880,33.42,-399,-118,-121
123,7244,6184,-11828,33.47,-437,-260,-138
124,7132,6184,-11880,33.42,-430,-249,-162
125,7096,6288,-11936,33.33,-367,-226,-111
126,7268,6228,-11916,33.38,-325,-208,-139
127,7112,6204,-11896,33.42,-390,-197,-120
128,7164,6240,-11796,33.33,-390,-125,-135
129,7112,6188,-11856,33.28,-463,-157,-111
130,7144,6304,-11828,33.42,-407,-106,-125
131,7260,6268,-11736,33.38,-380,-265,-159
132,7048,6132,-11920,33.33,-294,-244,-139
133,7116,˛                                                                   ,,,,,
134,3648,4328,-14168,33.33,1686,-810,-68
135,3956,2740,-13396,33.42,1794,-67,-2481
136,4424,4576,-14216,33.42,-6182,-203,-3610
137,2920,4376,-13700,33.38,-1760,688,-11
138,3460,3744,-14376,33.47,688,-396,53
139,3676,4816,-13568,33.38,373,828,-491
140,3336,3816,-14412,33.42,428,-1017,-380
141,3204,3796,-14212,33.47,645,1455,-786
142,2328,2392,-14164,33.38,-724,1628,-1204
143,3588,4096,-14276,33.47,-65,2128,-386
144,3684,3884,-14056,33.42,-738,-1434,-852
145,3256,3892,-13892,33.38,623,111,268
146,3728,3324,-14212,33.38,-1010,-992,-26
147,3628,3976,-13916,33.42,-161,42,-196
148,3328,3652,-13880,33.33,19,-50,-877
149,4260,3828,-14248,33.42,-924,1073,-578
150,3784,3456,-13988,33.47,-450,-287,-680
151,3848,3792,-13860,33.33,-583,-96,215
152,3812,4064,-13796,33.42,-297,-1855,-69
153,3852,4008,-14224,33.38,-346,-2060,-519
154,3408,3756,-13820,33.42,-77,2151,-940
155,3648,3828,-13836,33.42,-606,524,317
156,3704,3904,-13860,33.38,-744,877,201
157,3716,3836,-13884,33.28,-754,-307,398
158,3700,3540,-13864,33.47,-107,-1547,-93
159,3936,3780,-14172,33.42,-449,-423,-682
160,3328,3552,-14096,33.38,1005,679,-403
161,3952,3748,-13976,33.38,-817,486,-302
162,3828,4116,-13908,33.42,-55,-68,545
163,4044,3496,-13516,33.47,-266,-613,229
164,3508,3656,-14032,33.38,-1882,-1425,-558
165,3516,3936,-14092,33.47,189,-859,-634
166,3756,3524,-14056,33.42,-251,1243,-654
167,3636,4016,-14064,33.38,-534,256,-247
168,3612,3768,-14056,33.38,-340,513,42
169,3660,3580,-13896,33.38,-558,-505,-85
170,3624,3580,-13484,33.47,-441,-517,183
171,3764,3592,-14224,33.33,290,-1337,-639
172,3516,3672,-14104,33.28,-308,871,-431
173,5388,4432,-13548,33.47,-54,-27,-737
174,3876,3740,-14008,33.38,-1013,115,-94
175,3800,3580,-13656,33.38,-143,206,43
176,3772,3316,-14200,33.47,-512,-1017,-138
177,3828,3700,-13944,33.42,-320,131,118
178,3852,3680,-13920,33.33,-396,-1176,-412
179,3752,3832,-13924,33.38,-261,-3,-23
180,3600,3828,-13900,33.28,-199,-362,-211
181,3900,3680,-14084,33.52,-868,819,-610
182,3464,4136,-13744,33.42,-774,512,-212
183,3856,3828,-13928,33.38,-703,-1091,112
184,3552,3968,-13704,33.42,-42,-1184,173
185,3860,3780,-14224,33.33,-695,-1444,-783
186,3840,3956,-14004,33.52,-620,1030,-374
187,3524,3768,-14168,33.38,-266,-133,170
188,3468,3376,-13724,33.47,-666,-60,-95
189,3504,4120,-13932,33.38,-335,-797,-223
190,3852,4120,-13384,33.42,-736,-1396,276
191,3416,3892,-14328,33.47,188,-1049,-620
192,3404,3824,-14204,33.42,-147,1058,-584
193,3276,3944,-13992,33.38,-916,433,179
194,3440,3868,-13792,33.28,-501,503,-164
195,3564,3932,-13856,33.38,-483,-452,190
196,3484,4044,-13840,33.33,-207,-845,45
197,3396,3880,-13936,33.52,734,-1776,-231
198,3456,3788,-14200,33.38,-721,1017,-439
199,3544,3480,-14104,33.42,-598,59,-459
200,3380,4044,-13652,33.42,-1052,1459,475
201,3732,3776,-13980,33.42,-344,-1266,335
202,3808,3912,-13708,33.38,-733,-401,-288
203,4156,3460,-14492,33.42,161,-1054,-444
204,3556,4056,-14096,33.42,-96,1312,-580
205,3976,4020,-13564,33.38,-1004,1085,110
206,3676,3828,-13784,33.33,-355,-1306,401
207,4184,4544,-13424,33.47,-1593,-636,-159
208,3368,4200,-14144,33.38,545,-1570,-236
209,3812,3964,-14208,33.52,-576,1075,-855
210,4516,4016,-12888,33.47,-754,1158,101
211,4112,4224,-13068,33.47,-323,-2841,-771
212,3304,3400,-14388,33.42,-1904,-3227,-1793
213,4816,3520,-16044,33.47,4988,8010,1309
214,1964,4100,-12032,33.42,-6599,-5163,-3304
215,2236,3648,-14760,33.42,-2399,-1124,4154
216,4680,5856,-11536,33.42,24,-5,1595
217,2012,5224,-14928,33.47,610,910,637
218,2764,3596,-12328,33.33,-4892,514,722
219,3884,5092,-14404,33.47,4589,-4502,-3586
220,2088,4720,-15580,33.42,-5278,2369,4345
221,5048,6096,-13768,33.42,-732,-2279,-6521
222,2104,6772,-14124,33.42,-1548,2983,3308
223,4500,3716,-13944,33.47,125,-1066,203
224,5056,6632,-13476,33.42,-8994,-2921,-10459
225,6176,7224,-9980,33.33,575,412,-2782
226,1892,524,-15932,33.42,13921,201,-4807
227,-2964,-9064,-16468,33.38,-5981,-1398,2451
228,3300,8904,-21356,33.42,-18485,-9421,19497
229,-948,5592,-5492,33.38,-4735,-5980,22682
230,4352,14168,-6312,33.42,9173,4579,6063
231,2692,11608,-11424,33.42,2442,4591,2118
232,2244,5220,-14440,33.47,5,741,-3227
233,4780,6620,-14844,33.38,2995,-1326,688
234,8172,4160,-15984,33.42,-2480,-2996,-205
235,5748,4168,-9640,33.33,2296,1958,4051
236,5016,13296,-11868,33.38,1275,-1275,-8298
237,-108,6180,-14892,33.42,-2384,193,-7072
238,-576,-1036,-17784,33.38,1134,-868,2923
239,5772,-3572,-13536,33.47,-6200,-2211,8731
240,9432,7572,-9724,33.42,-1521,-1712,3221
241,5436,12504,-10084,33.38,281,1240,-7117
242,-896,7556,-12860,33.47,-599,3891,-9143
243,-3696,2428,-20920,33.47,-2253,696,-3017
244,5132,-3836,-12816,33.47,-2321,-1077,5672
245,9404,4800,-11512,33.38,-1448,-3074,7359
246,7580,8968,-9776,33.47,1202,-228,-1713
247,2800,12508,-10528,33.33,1632,2311,-6430
248,-2176,9408,-15628,33.47,1674,4497,-4657
249,-2820,-3496,-16064,33.42,-13,2472,2440
250,8392,1708,-13320,33.38,-1462,-3565,5681
251,8656,5680,-10336,33.47,-2746,-280,541
252,3720,7416,-11920,33.42,2690,205,-164
253,2224,7500,-15368,33.47,-2175,252,-1242
254,1940,6212,-15752,33.42,-260,-890,1652
255,3476,7764,-11700,33.42,-4768,-853,-1421
256,3168,4420,-13996,33.42,2370,-3213,1844
257,5136,7428,-11420,33.52,-1058,-347,246
258,3916,7428,-15288,33.38,4489,-4433,-3445
259,2856,2656,-11528,33.47,945,-1799,319
260,4644,3260,-12648,33.42,6381,7774,4326
261,4740,12492,-23972,33.42,-8514,-3494,-6535
262,508,2768,-11320,33.38,3149,-8937,-4141
263,412,-4388,-136,33.42,2758,2373,4105
264,6612,9256,-17512,33.47,-2194,14173,4181
265,3604,11184,-23924,33.47,-8717,-4903,-3886
266,-616,-764,-5464,33.42,4935,-9023,-1744
267,4124,4748,-9108,33.33,9190,14391,7048
268,7180,11644,-20872,33.38,-3846,-1299,-929
269,4668,4904,-14444,33.42,-6687,-9925,-8726
270,504,-1680,-6844,33.38,3618,623,3470
271,6156,7044,-19704,33.38,5543,12484,7204
272,5988,11556,-18840,33.52,-12958,-13143,-7753
273,-3288,-3268,-5712,33.38,1079,-4791,1422
274,2896,4420,-10020,33.38,10647,14648,8930
275,7184,14120,-21860,33.38,-8168,-10204,-6342
276,-712,1564,-8244,33.42,-2782,-8993,-3044
277,224,528,-7360,33.42,6277,9692,7194
278,7360,7220,-18776,33.42,10557,12219,690
279,6180,13124,-20732,33.42,-13365,-11001,-7725
280,-1320,-520,-7556,33.42,303,-2617,466
281,3364,6472,-12824,33.47,10383,16099,9306
282,9348,14592,-18444,33.47,-5089,-7087,-6413
283,5900,8940,-14744,33.42,-3738,-5942,-16078
284,1324,5676,-10864,33.38,5650,3683,-10563
285,888,2308,-9412,33.47,-3462,12934,-13451
286,3408,3112,-14444,33.47,5232,7731,-5827
287,-7636,-20352,-24060,33.38,-10781,17247,-18250
288,7184,928,-16012,33.33,-9984,3720,-6696
289,3156,5968,-15316,33.38,-4507,-6950,-1477
290,664,5648,-6392,33.42,1056,6280,5110
291,5764,7652,-15928,33.38,-1104,-2950,-720
292,3028,5676,-13140,33.47,-1497,3080,13
293,4644,3992,-12892,33.42,-3752,1125,-3570
294,3132,6232,-13160,33.42,-265,-3666,-52
295,-5472,32,-15552,33.38,-11215,14761,-2707
296,5172,6288,-15040,33.42,-8696,3368,-3645
297,4420,5252,-10760,33.42,4259,3259,6507
298,4060,3660,-14992,33.42,-595,-3332,1392
299,2464,4232,-16092,33.38,-3603,-8057,3077
300,2448,3952,-12600,33.33,-57,-585,2396
301,4312,8684,-13444,33.42,-1639,3765,-3501
302,4480,7384,-13128,33.42,1671,-384,-4610
303,4236,5692,-11888,33.42,-547,2688,-3178
304,3960,6760,-13492,33.42,1818,-587,2247
305,5068,6268,-14144,33.38,2809,-2743,1450
306,4396,5004,-13620,33.38,3954,96,-253
307,4548,5060,-14284,33.33,1512,-1248,-1125
308,3748,5032,-13724,33.42,-241,331,-459
309,3812,4736,-13436,33.47,702,-1493,-251
310,2600,4936,-14196,33.33,-819,-3214,1031
311,4812,5172,-12796,33.42,-2695,-1083,211
312,3960,5040,-14132,33.33,1006,221,-3467
313,2460,4044,-14280,33.38,926,-512,-227
314,3228,5692,-13392,33.33,-2615,85,1402
315,4704,6032,-12980,33.38,-1045,76,927
316,4220,4660,-13456,33.33,83,-359,-1132
317,3388,5260,-14008,33.38,796,817,-1922
318,3012,5176,-13520,33.33,-1381,1551,310
319,3924,4952,-13348,33.38,-567,37,883
320,4136,4984,-13608,33.47,-421,-921,549
321,3664,5180,-13276,33.52,-411,-1101,487
322,3888,5076,-13844,33.47,314,-64,-1114
323,3912,4848,-13540,33.42,481,1395,-1362
324,3736,5356,-13300,33.33,-927,983,-12
325,4136,4924,-13404,33.33,-1168,-793,1020
326,4092,4816,-13476,33.42,304,-550,449
327,3756,5240,-13392,33.38,-841,-720,-572
328,3960,5388,-13896,33.42,-64,-31,-598
329,3324,5272,-13696,33.42,-585,350,-371
330,3984,5096,-13204,33.42,-372,-127,-211
331,3824,5028,-13708,33.38,-931,-515,-386
332,3508,5060,-13532,33.33,-1850,-921,-121
333,4628,5964,-14760,33.42,-4424,-2433,1101
334,6248,4212,-14020,33.42,-10961,-5163,-2148
335,4468,6116,-14420,33.47,-8136,-3947,3135
336,2368,4212,-14132,33.38,-4484,-4307,2699
337,1020,5212,-12252,33.38,3229,-4388,5858
338,1940,7040,-13188,33.42,-2086,-2324,10463
339,2152,8044,-12312,33.38,-377,-3075,7379
340,3828,11256,-7016,33.38,1874,-1877,10719
341,5860,13396,-8436,33.38,4530,-571,1035
342,4640,11684,-9900,33.33,6283,2323,-5325
343,2336,5828,-14132,33.42,7360,1284,-8361
344,-1076,-712,-17076,33.33,-2585,-464,109
345,7176,-3768,-14672,33.38,-3931,-4604,11396
346,9436,3372,-10068,33.33,-6551,-2473,8895
347,10640,18116,-10052,33.38,1670,-600,-9948
348,-3560,19708,-13136,33.47,-2135,2615,-9711
349,-10640,912,-16556,33.33,5259,2369,-3357
350,3960,-7964,-23128,33.38,-3158,-3502,10278
351,13684,-2988,-8696,33.42,-13772,-5640,8264
352,10820,9432,-9796,33.42,7515,-2472,80
353,6884,16588,-6428,33.42,-5049,151,-6555
354,-1808,21328,-9604,33.42,-6448,2788,-9915
355,-8324,7664,-13276,33.33,-894,7774,-6123
356,-4856,-4904,-19648,33.42,2802,1276,1283
357,12920,1328,-16980,33.28,-6853,-5332,8021
358,7848,3884,-6564,33.38,4728,-2878,5296
359,3296,15972,-8664,33.47,5843,1309,2340
360,3856,13196,-12636,33.33,-2733,7237,-2065
361,4520,10940,-12260,33.42,-3223,1228,-9735
362,3296,13584,-9684,33.38,-799,-1830,-15528
363,1428,6492,-9588,33.42,6067,5626,-13990
364,1284,2400,-12476,33.38,13001,8739,-7549
365,3660,3868,-14768,33.38,-1264,6605,-5057
366,2248,5452,-13820,33.33,-238,6083,1183
367,4176,5784,-15348,33.47,6666,-852,1128
368,5240,7184,-15148,33.42,377,-1699,-3302
369,11632,3384,-13268,33.33,-9931,3155,-2829
370,3620,2980,-14856,33.33,681,-1581,366
371,3680,4436,-12368,33.38,-488,-2331,-1814
372,3084,6644,-13800,33.47,-1081,-257,2702
373,2952,9352,-12912,33.38,-3103,-1042,2070
374,4364,6108,-11956,33.38,3094,-383,608
375,3296,7764,-13952,33.42,2542,430,247
376,3660,6220,-12776,33.38,-2703,-3158,187
377,3280,5608,-13764,33.38,1882,-3568,-233
378,2616,6312,-13308,33.42,2220,-1548,-736
379,3184,5464,-13260,33.42,-809,1415,852
380,3524,5552,-13140,33.38,483,2274,241
381,3248,5764,-13608,33.28,-1323,1869,-422
382,3500,5544,-12500,33.38,-1168,1457,1571
383,4064,5924,-12884,33.38,-1419,-231,-111
384,3492,5928,-13080,33.42,-1412,-830,-227
385,3572,5968,-13452,33.42,316,-561,-220
386,3240,5300,-13484,33.47,922,219,-307
387,4924,4784,-14628,33.42,388,1757,-884
388,3824,4504,-14780,33.38,-1406,3253,-3001
389,1864,5388,-9744,33.38,1573,-2475,1912
390,2984,6748,-10600,33.33,1868,-6320,10932
391,2364,3500,-13724,33.42,4340,-6186,-1012
392,3660,4960,-14224,33.42,2425,-2741,-1124
393,2840,4980,-13912,33.42,869,-232,-1300
394,2924,4956,-14172,33.33,4,-573,-325
395,4972,2888,-13732,33.33,905,1709,595
396,5080,4656,-12844,33.42,-810,1499,-443
397,3440,4340,-13652,33.38,-399,247,-612
398,3248,4632,-14204,33.42,170,-1514,152
399,3300,4260,-13796,33.38,64,1221,478
400,4912,4328,-13388,33.38,898,-387,-188
401,3608,4136,-14152,33.42,959,-4,-312
402,3388,4068,-14228,33.42,97,526,890
403,3716,3648,-14732,33.42,966,1214,821
404,3704,3324,-14720,33.42,1548,1393,976
405,7040,5088,-13256,33.47,-75,-2499,735
406,4352,4044,-13848,33.33,-3445,-404,785
407,4016,3508,-13592,33.38,-1651,-2414,-1167
408,3604,3308,-14256,33.38,-809,-208,-747
409,3660,4236,-14020,33.38,-1146,170,152
410,4680,5812,-14484,33.47,-1445,969,-384
411,4152,4108,-12936,33.38,-2453,-151,136
412,2516,3064,-14280,33.33,-5099,-2464,-1633
413,3396,5348,-13644,33.33,-716,1350,755
414,3120,4768,-13364,33.38,-99,-521,-367
415,3096,4456,-13900,33.33,-1396,-676,-607
416,3428,5328,-13968,33.33,-1819,-2120,-1362
417,2932,4852,-14188,33.28,178,-307,-843
418,2900,4720,-13972,33.42,-225,361,-463
419,2864,5500,-13944,33.42,602,1498,-1153
420,2768,4532,-14200,33.33,494,651,573
421,3168,5416,-14060,33.33,970,1198,1190
422,2712,4752,-13752,33.38,369,1895,1832
423,4400,4540,-13712,33.38,-1671,444,-512
424,4136,3924,-13004,33.47,675,-1474,-1374
425,3192,5692,-12988,33.38,-1274,-2617,-2538
426,2928,4916,-14012,33.38,182,-1144,-1678
427,3096,4668,-13924,33.38,398,-889,153
428,2668,4932,-13688,33.28,1089,-139,-467
429,3244,4080,-14184,33.47,951,1402,-299
430,2972,3940,-14020,33.42,122,594,339
431,3040,4284,-13764,33.42,210,-1182,-295
432,3360,4608,-14256,33.38,-974,-476,-646
433,2984,4228,-14148,33.33,-1040,209,914
434,3312,4712,-14296,33.47,-1379,-60,1428
435,2192,4396,-13692,33.47,897,949,2200
436,3864,3936,-14268,33.38,276,291,563
437,3728,4232,-13384,33.38,36,121,-898
438,3916,4064,-14704,33.38,-1693,-958,-2327
439,3040,3892,-14488,33.47,-59,-458,-961
440,3364,4620,-13740,33.33,326,-72,-989
441,2932,4976,-13744,33.38,-560,592,-402
442,3360,3872,-13808,33.33,-95,-45,286
443,2944,4948,-14220,33.33,1160,399,-41
444,3948,3708,-13480,33.33,-749,-297,1429
445,3164,4236,-14276,33.33,579,1662,607
446,4092,4352,-13800,33.52,-551,760,295
447,4008,4284,-14036,33.38,-817,734,319
448,4060,3992,-13652,33.38,226,-894,-446
449,4192,5168,-12796,33.33,-1009,142,-841
450,3032,3240,-15584,33.38,418,-5408,-1534
451,2872,4688,-13952,33.38,160,754,-946
452,3400,4320,-14004,33.38,764,-1134,-738
453,3096,4072,-14220,33.33,-1057,-802,-198
454,3016,4376,-13616,33.28,-205,-124,-46
455,3144,4220,-14040,33.42,-504,-469,-299
456,2704,4652,-13776,33.38,-1264,-1875,-27
457,2860,4580,-13880,33.38,-1293,-521,836
458,3204,4556,-14256,33.42,-1186,819,1279
459,3132,4716,-13496,33.38,-685,2060,1588
460,3780,4692,-13344,33.38,-263,26,159
461,3352,4480,-13608,33.38,-99,-336,-227
462,3464,4696,-14028,33.33,-760,-1559,-449
463,3268,4724,-13952,33.33,-679,2096,472
464,3184,4668,-13616,33.38,-551,-501,814
465,3420,4596,-13816,33.33,-59,-126,-365
466,3832,4740,-13708,33.33,-645,-635,-446
467,3452,4516,-13800,33.42,-874,743,462
468,4000,4872,-13656,33.33,-754,-600,184
469,3516,4880,-13700,33.38,-480,-1495,-121
470,3420,4916,-13776,33.28,-173,735,-585
471,3892,4196,-13600,33.33,-329,-699,64
472,3352,4720,-13728,33.42,425,-735,-961
473,3444,4736,-14140,33.38,-269,-366,-693
474,3488,4700,-13204,33.42,25,763,63
475,4008,4640,-13464,33.47,-548,-502,-666
476,3588,4696,-14088,33.33,-678,-568,-167
477,3188,4788,-13668,33.42,27,526,-380
478,3680,4668,-13436,33.42,-495,536,-438
479,3636,4728,-13572,33.38,-329,426,-541
480,3596,4764,-13696,33.42,73,108,-800
481,3880,4728,-13932,33.33,-385,1278,-222
482,3840,4576,-13632,33.38,102,597,20
483,3920,4344,-14308,33.38,739,-1351,317
484,4168,4428,-14080,33.42,215,-408,-778
485,4184,4304,-13552,33.38,122,-678,-1257
486,3272,4544,-13852,33.42,-751,-462,-925
487,4184,4900,-13588,33.38,-3023,-2065,-980
488,2852,5176,-13388,33.42,-2216,-1779,-294
489,3276,4576,-14196,33.33,2109,1290,279
490,3208,4680,-14444,33.38,432,-350,335
491,2960,4532,-14200,33.38,102,1304,766
492,3556,4064,-14948,33.42,-1887,1399,1084
493,4220,5432,-11424,33.42,1562,1190,1677
494,4772,4536,-13820,33.38,-955,950,122
495,3756,4432,-13964,33.33,-275,192,-529
496,3440,4824,-13632,33.38,-1335,-944,-465
497,4012,4416,-13600,33.42,518,-164,-654
498,3604,3752,-14692,33.38,-1798,297,-975
499,3860,4352,-13796,33.42,529,-882,-1292
500,3164,5148,-13652,33.42,-258,-816,-1441
501,3212,4732,-13740,33.33,375,-3140,-815
502,3144,4524,-14328,33.38,81,137,-330
503,3112,4172,-14112,33.28,945,616,353
504,3484,3916,-14020,33.33,-224,-260,166
505,3256,4412,-13680,33.42,318,251,353
506,3668,4016,-14092,33.38,-1244,-139,71
507,5684,5920,-11844,33.42,-869,1937,916
508,3540,4356,-13972,33.42,-2040,1132,727
509,4048,4028,-13204,33.42,-824,-647,30
510,4156,4164,-13128,33.38,-844,-180,-1161
511,4028,4472,-13368,33.42,37,103,-922
512,3824,4380,-13320,33.33,-474,-348,-1129
513,4792,5492,-12424,33.33,-204,1207,-873
514,3640,3928,-13756,33.33,-240,-730,-39
515,3896,3368,-14492,33.42,-325,1339,70
516,4104,4872,-13948,33.38,-1147,836,75
517,4028,4172,-13340,33.42,-344,-306,-1018
518,3560,4532,-13740,33.28,620,-2973,-2193
519,-492,4652,-17424,33.38,-3165,-2332,-2695
520,3428,4512,-13920,33.42,539,-1123,-904
521,3940,4908,-14676,33.42,-312,-90,-233
522,3108,3788,-13928,33.33,-567,-346,1217
523,3328,4176,-14092,33.38,340,437,4
524,3236,4976,-14032,33.28,-689,749,494
525,4096,3992,-13852,33.38,-1316,1064,1229
526,3708,3756,-14140,33.28,-165,307,845
527,3844,4432,-13492,33.38,-1551,282,825
528,3992,4108,-12844,33.33,-796,-723,1123
529,4428,4408,-13328,33.33,-3447,-754,-719
530,4036,3128,-13928,33.42,-3032,-784,-141
531,3372,5460,-13804,33.38,2414,-1863,-840
532,3484,4848,-13724,33.38,-1107,-736,-2030
533,3132,4692,-13616,33.28,2249,1305,-2779
534,2516,4152,-13296,33.47,1178,-808,-2041
535,2948,4120,-14328,33.38,626,1548,130
536,3512,4384,-14336,33.28,-1410,-610,1265
537,2580,4148,-13952,33.38,-195,1963,1584
538,3224,4356,-13456,33.33,-1156,-1664,1566
539,4192,3704,-13516,33.33,-1056,-1004,116
540,3612,4664,-13720,33.33,-2707,-810,-1364
541,3192,4744,-13648,33.38,-342,-508,163
542,3236,4668,-13088,33.33,-1010,-1462,-4
543,2320,5396,-13784,33.38,-193,-1488,1818
544,3308,4780,-13872,33.33,-381,-928,-440
545,3012,4584,-13936,33.33,-77,-888,74
546,3008,4656,-13596,33.42,1302,-337,-1905
547,2824,4576,-14344,33.33,2370,-561,-893
548,2564,4432,-14240,33.38,212,1747,-1978
549,3320,3672,-14428,33.33,758,941,-516
550,3480,3876,-14144,33.28,-2055,-293,886
551,2964,4740,-13996,33.33,-714,491,629
552,3888,4160,-13576,33.33,-2184,-188,1565
553,3604,4220,-14096,33.42,-962,-845,-223
554,3152,4776,-13220,33.42,-2075,-596,92
555,3136,4484,-13704,33.38,100,-1607,-284
556,3080,4492,-14048,33.42,-657,-1047,-778
557,2984,4480,-13964,33.42,823,339,-189
558,3472,4096,-13824,33.42,223,746,-1769
559,3016,4416,-13692,33.28,1139,230,-2296
560,2476,4464,-14132,33.42,1971,60,-1697
561,2704,4308,-13804,33.28,-719,801,-446
562,3280,4024,-13916,33.42,-521,57,-159
563,2836,4372,-13912,33.38,-1189,-473,-727
564,2756,4700,-14148,33.24,-144,-277,701
565,2872,4180,-14044,33.28,-1252,201,931
566,3196,3956,-13796,33.33,-104,850,-50
567,2964,4520,-13748,33.33,-1316,-585,-385
568,2700,4716,-13852,33.33,-1041,-1768,1688
569,3432,4580,-13688,33.28,-1159,-463,573
570,3096,4112,-13664,33.33,-923,169,771
571,2652,4588,-13740,33.33,-456,-1637,-386
572,2644,4816,-14132,33.42,-322,-158,51
573,2840,4228,-13800,33.33,397,344,-220
574,3124,4044,-13860,33.38,46,1154,-2540
575,2260,4632,-13992,33.33,2170,-1849,-1428
576,2524,4692,-14304,33.33,-583,-1078,185
577,2980,3872,-14120,33.38,-501,-548,202
578,2228,4480,-14076,33.33,753,-1789,-582
579,2048,4832,-14368,33.33,-1372,2008,499
580,3180,3928,-13660,33.28,-398,3564,-142
581,3340,3648,-13788,33.33,-609,810,-724
582,2768,4564,-13716,33.38,-1154,-1037,-1452
583,2948,5136,-13916,33.33,-1908,419,1191
584,3632,4900,-13568,33.38,537,627,949
585,3004,4364,-13456,33.28,-1450,730,27
586,3048,4600,-13764,33.33,-254,-251,641
587,3340,4488,-13736,33.42,2145,-585,-372
588,3488,4152,-13812,33.33,429,-1714,-127
589,3056,4112,-13952,33.28,-765,-1444,-1239
590,2528,4664,-14336,33.42,524,-775,-435
591,3436,3688,-13560,33.38,-370,1020,-982
592,2880,4120,-14136,33.33,756,-100,-1404
593,3020,4364,-14116,33.38,-1220,170,-845
594,2968,4352,-13916,33.33,-717,847,1358
595,3236,4428,-13968,33.38,-1553,1272,1464
596,4148,4172,-13956,33.38,-1697,-166,981
597,3224,4356,-13424,33.28,242,-1036,-291
598,3128,4100,-13928,33.33,-1101,-811,-650
599,3700,3912,-14632,33.42,-630,-1754,-528
600,2864,4660,-13608,33.42,344,-19,492
601,3352,4708,-13588,33.33,-578,-315,348
602,3244,4464,-13840,33.28,-268,-1221,-140
603,2820,4756,-13696,33.38,-619,-425,406
604,3404,4476,-13480,33.42,-380,-836,28
605,3128,4568,-14020,33.33,-633,-1614,71
606,3052,4704,-14032,33.42,-957,-427,-464
607,2984,4616,-13900,33.33,-788,126,-1991
608,3016,4908,-13820,33.38,801,-355,-1342
609,2320,4736,-13828,33.33,629,288,-55
610,2736,4652,-13600,33.42,-341,1301,1048
611,3412,4108,-13924,33.42,-1116,-15,565
612,2596,4932,-13980,33.38,-1520,-1047,654
613,2608,5296,-13052,33.42,-2858,-1510,1037
614,3420,4688,-13748,33.33,-1588,-174,1194
615,3124,5036,-13524,33.42,-67,-37,769
616,3148,4616,-13732,33.33,-880,-1126,37
617,1824,5512,-13972,33.28,-626,-38,-178
618,2968,5020,-13548,33.33,310,-234,-1458
619,3284,5140,-13688,33.38,-12,551,-2963
620,2372,5236,-13812,33.33,1169,467,-1572
621,2672,5392,-13808,33.38,344,-455,-255
622,2648,5436,-13868,33.33,-669,-1276,405
623,2760,5320,-13628,33.38,-682,104,1705
624,3024,4884,-13396,33.42,-111,1097,17
625,2988,4696,-13936,33.38,480,-776,-1506
626,2496,5260,-13524,33.42,-1287,-724,-866
627,2556,5184,-14040,33.33,-602,-585,578
628,2820,4904,-13752,33.33,-934,92,1597
629,3024,4980,-13336,33.38,-392,-729,380
630,3132,4808,-13896,33.33,276,-996,133
631,2548,5084,-13528,33.42,1047,-1390,-795
632,2452,4968,-14168,33.42,-490,-726,-1039
633,2000,4928,-14216,33.33,43,-241,-962
634,2056,4856,-13484,33.33,750,-87,-2668
635,2596,4420,-14468,33.38,365,-679,-1006
636,2060,4576,-14280,33.33,-887,35,-610
637,2356,4852,-13728,33.28,-594,-677,767
638,2156,4920,-13852,33.42,-310,842,358
639,2164,4704,-14056,33.38,-1852,534,677
640,1940,5252,-13952,33.42,-774,-217,441
641,2956,4848,-13576,33.38,-2042,1184,1236
642,2668,4892,-14416,33.24,-424,-7,258
643,2484,4976,-13636,33.33,-1037,1747,970
644,3192,4900,-13312,33.42,-551,-358,-347
645,2608,5316,-14484,33.38,334,-1766,-28
646,3300,4784,-13512,33.42,326,60,312
647,2920,4936,-13640,33.33,-869,-913,-485
648,2224,5204,-13796,33.38,-188,-841,-178
649,2864,4704,-13824,33.33,801,-371,-990
650,2432,4920,-14000,33.38,105,-113,-1252
651,2800,5076,-13520,33.33,-492,359,-57
652,2680,4424,-13756,33.38,-393,-352,-698
653,2472,4924,-14024,33.33,-430,-959,-500
654,2716,4656,-13744,33.33,-1288,840,975
655,2576,4700,-13816,33.28,373,197,-793
656,2364,4788,-14020,33.38,546,-294,1274
657,2820,4928,-13824,33.42,-1434,-363,660
658,2160,4292,-14800,33.28,-108,314,1309
659,3288,4544,-13524,33.42,-985,-67,298
660,2940,4660,-14196,33.38,-722,-1186,-489
661,2512,5024,-13976,33.42,-97,-754,1576
662,3072,4664,-13556,33.38,-154,488,-543
663,2916,4656,-13436,33.33,471,779,132
664,2924,4884,-13776,33.42,15,-1469,-1200
665,2336,4872,-13972,33.33,361,139,-1110
666,2672,4784,-13796,33.38,-490,1022,-2182
667,2904,4396,-14272,33.33,-851,65,-763
668,2272,4676,-13668,33.38,-882,-665,-345
669,3164,4772,-14072,33.42,-1484,-2,-314
670,3096,4592,-13932,33.38,53,174,-633
671,2840,4608,-13496,33.38,-108,651,-1578
672,3080,5020,-13840,33.38,893,-20,-410
673,2832,5056,-13440,33.28,-1555,541,1206
674,3528,4972,-13408,33.28,-250,1703,284
675,3696,3708,-14616,33.33,1415,64,-1013
676,2960,5156,-13728,33.38,-714,-1226,252
677,2800,4652,-14224,33.33,-1428,-1296,-1104
678,3356,4528,-14120,33.28,-935,624,1137
679,3432,4608,-13604,33.42,-106,203,-796
680,2884,4808,-13620,33.33,-442,-1348,-62
681,2592,5028,-14380,33.33,-20,-329,640
682,3124,4500,-13628,33.33,-286,-263,-456
683,2820,4892,-14264,33.38,-149,-465,-138
684,7532,6064,-14336,33.33,-2521,1590,2619
685,1780,3316,-13600,33.33,1591,1121,1831
686,4180,4328,-13136,33.33,-1069,-27,-685
687,3120,5016,-14028,33.38,-1396,-644,-1539
688,3184,5264,-13168,33.28,-2065,-2286,-801
689,4368,4744,-13240,33.28,509,-1069,-1173
690,2048,5260,-15020,33.38,2069,-3615,-900
691,2620,4580,-13604,33.38,-693,1201,485
692,2644,4804,-13488,33.33,-1333,-397,-1451
693,1864,5192,-14392,33.33,663,-1191,-436
694,2396,4600,-13976,33.38,-446,2876,411
695,2952,4156,-13408,33.33,-930,1222,369
696,2668,5396,-14464,33.38,614,-1718,373
697,2836,4484,-13432,33.33,-1248,2095,649
698,3700,5112,-14176,33.38,-1985,756,-305
699,2728,5156,-13376,33.42,877,-413,1260
700,3196,5140,-13680,33.28,-277,929,981
701,3584,4852,-13440,33.33,-814,-363,-246
702,2732,4904,-14204,33.47,-2365,-1466,-634
703,2744,5828,-13284,33.28,-1626,204,202
704,3196,4876,-13568,33.24,1205,-855,-1555
705,2776,5268,-13148,33.33,1798,-494,-1196
706,2888,4644,-14340,33.42,737,-1142,-1522
707,3196,4084,-14040,33.28,2177,169,-615
708,2520,4844,-13772,33.33,-1133,373,-494
709,2084,4668,-14256,33.38,-247,1139,1388
710,3292,4644,-14308,33.38,-1168,-118,1414
711,3208,4496,-13776,33.33,-630,-2054,1146
712,2968,4692,-13388,33.33,-1211,271,-656
713,3224,4820,-13704,33.28,-2018,-2944,1139
714,2204,5304,-13524,33.33,-657,-1231,-344
715,2604,4844,-13868,33.28,-643,92,819
716,2648,4860,-13580,33.28,-298,-1589,-532
717,2212,4668,-13888,33.38,1177,312,-1333
718,2384,4736,-13892,33.33,1666,-320,-1349
719,2320,4732,-13892,33.24,350,1634,-1378
720,2760,4328,-14108,33.24,-736,605,-272
721,2688,5280,-13664,33.28,-1267,455,791
722,3116,4620,-14284,33.33,-1488,-30,1213
723,2984,4420,-13592,33.28,-1372,32,2154
724,3404,4976,-13856,33.24,-1403,-1358,1422
725,3332,4596,-13452,33.33,-1178,-848,-209
726,3020,4920,-14084,33.28,-1413,-536,-692
727,2716,5228,-13652,33.38,96,-484,-1532
728,2660,5148,-13712,33.24,-160,-679,54
729,2684,4104,-14216,33.24,1294,-1251,-184
730,2120,5216,-13780,33.33,395,780,-1404
731,2136,5152,-13816,33.24,-85,315,-738
732,2664,4764,-13672,33.38,-1949,1121,-2776
733,2424,4960,-13956,33.28,748,245,116
734,2700,5020,-13788,33.38,-415,304,157
735,3392,4504,-13324,33.33,209,-295,1103
736,2980,4804,-13928,33.28,-626,-641,230
737,2864,4428,-13928,33.33,-2112,97,203
738,2404,4228,-14408,33.24,-67,976,147
739,3280,4676,-14024,33.33,-651,58,-357
740,2636,4348,-14348,33.38,825,-2524,79
741,3244,4860,-13356,33.28,-1615,-609,150
742,3172,5016,-13876,33.33,-822,-1535,1027
743,2300,4984,-13776,33.24,-622,-2213,173
744,2836,4992,-13980,33.33,403,-1590,-767
745,2424,5068,-14064,33.28,-437,1100,-987
746,2124,4548,-14036,33.42,521,-44,-1282
747,2480,5276,-13928,33.28,10,1035,-1273
748,2464,5044,-13404,33.33,-461,642,519
749,2784,5008,-13596,33.33,981,121,411
750,2524,4852,-13880,33.33,-659,-1042,-286
751,2540,4852,-14596,33.33,-1205,-57,1943
752,3452,4776,-13624,33.28,-2317,840,2843
753,3376,4992,-13672,33.24,-933,218,509
754,3148,4840,-12668,33.38,-153,-548,-206
755,3628,4720,-14028,33.33,121,-435,-1227
756,3172,4856,-13516,33.38,-1619,-2167,-115
757,2228,5440,-13560,33.38,-187,-942,257
758,2988,4968,-13956,33.33,906,-1351,486
759,2768,4604,-14012,33.28,-42,-1086,-1721
760,2432,4516,-14048,33.28,1373,466,-1425
761,2520,4804,-13912,33.33,41,175,-2366
762,1996,5156,-13672,33.28,702,588,-1453
763,2552,4664,-14232,33.33,119,1707,-1377
764,2820,3668,-13548,33.38,-377,-12,1595
765,2048,4916,-13612,33.33,-489,279,86
766,2524,4404,-14288,33.24,-1999,-348,774
767,2444,4468,-13952,33.28,-784,362,1292
768,3792,4588,-13588,33.24,-789,-448,1728
769,3568,4548,-13512,33.38,59,-480,293
770,2608,4488,-13692,33.33,-1098,-1115,-315
771,2288,4880,-13976,33.33,273,-361,948
772,2724,4568,-13768,33.33,288,-59,1159
773,2964,4456,-14048,33.28,556,168,-888
774,2916,4460,-13756,33.33,1043,-387,-812
775,2504,4776,-13676,33.28,-104,-736,-2178
776,2792,4156,-14156,33.19,893,352,-1587
777,2784,3996,-14092,33.19,709,751,-1596
778,2800,4412,-14092,33.33,130,6,-709
779,2596,3856,-14228,33.33,-433,900,-457
780,2960,4056,-14100,33.19,-1454,455,586
781,3364,4404,-13440,33.24,-1245,732,900
782,3168,4352,-13768,33.24,-800,-169,1274
783,2776,4240,-13832,33.24,-989,-642,1593
784,2924,5116,-13652,33.19,-937,1266,838
785,3496,4288,-13896,33.33,-742,147,311
786,3108,4808,-13500,33.28,-976,22,-1167
787,3420,4648,-13968,33.38,-686,-344,-390
788,3540,4736,-14180,33.28,309,-1770,306
789,2856,4776,-13824,33.33,152,-454,-880
790,2956,4604,-13784,33.33,-225,-484,-516
791,3372,4196,-14360,33.33,-249,-888,-2029
792,2236,5180,-14136,33.24,-198,-2265,-822
793,2408,4628,-13336,33.28,498,259,-990
794,2820,4216,-14080,33.33,-99,242,-1116
795,2260,4628,-14268,33.33,148,392,-2092
796,2608,4636,-13876,33.28,-1817,1493,846
797,2720,4812,-13172,33.33,-752,-97,673
798,2816,4424,-14992,33.38,-16,-411,384
799,2592,4812,-13492,33.33,-1634,391,743
800,3272,5116,-13968,33.38,-1274,685,719
801,2832,4836,-13412,33.42,-283,-70,314
802,2908,4960,-13716,33.24,-1696,-57,259
803,3396,4888,-14060,33.28,-926,-850,1174
804,3108,4916,-13800,33.28,-690,-626,136
805,3004,4864,-13788,33.33,-1,-1181,165
806,2504,4888,-13940,33.33,355,-823,319
807,2484,4988,-13692,33.33,-523,-1085,-210
808,2128,5160,-14116,33.28,343,-1234,417
809,2412,4772,-13808,33.33,-418,-731,-1147
810,2236,4888,-14000,33.38,50,649,-1494
811,2048,4792,-13996,33.33,716,210,-1608
812,1980,4700,-13716,33.19,167,426,-1870
813,2328,4484,-13992,33.28,-178,99,-137
814,1976,4732,-13800,33.24,531,919,-314
815,2808,4388,-14012,33.24,-1410,856,1439
816,2280,4964,-13836,33.28,-420,544,1814
817,3016,4976,-13764,33.33,-2192,1260,1822
818,3724,4492,-13748,33.24,-964,261,1671
819,3252,4872,-13768,33.33,-570,-1335,6
820,2820,4896,-13728,33.28,-1097,-240,-306
821,3040,4288,-14104,33.28,-106,-1972,865
822,2660,4844,-13904,33.42,413,-1769,-923
823,2828,4540,-13868,33.28,-271,-2027,360
824,2220,4948,-14012,33.19,204,-58,-2079
825,2164,4696,-13884,33.28,-1092,936,-817
826,2592,4688,-14128,33.28,781,-702,-2940
827,2224,4448,-14036,33.24,1031,797,-1654
828,2456,4704,-13904,33.24,-505,924,-418
829,4332,5364,-14420,33.33,-625,-1278,116
830,2272,5004,-13436,33.33,603,418,2270
831,2756,4888,-13456,33.33,-1163,1787,1770
832,2968,3524,-13756,33.33,-839,1143,1684
833,3416,4564,-13348,33.28,575,-1102,605
834,3920,4324,-13748,33.33,-2813,-1606,-118
835,2844,5208,-13188,33.24,-379,10,-861
836,3060,4972,-13520,33.33,-1929,-1609,562
837,2792,4824,-13692,33.33,443,-493,-564
838,3000,4756,-13608,33.28,-164,-1117,17
839,3020,4932,-13900,33.33,349,-2171,-1241
840,2156,4972,-14052,33.33,895,-651,-2013
841,2556,5076,-13632,33.28,1503,-225,-2586
842,1940,4916,-13976,33.28,271,1267,-1901
843,2440,4624,-13760,33.24,-863,1202,-879
844,2320,4520,-14112,33.28,-296,-1337,1303
845,2692,4832,-13516,33.28,-1207,214,1123
846,3000,4756,-13964,33.33,-1028,-657,1179
847,2360,5136,-14136,33.33,-787,-203,523
848,2712,4724,-12964,33.24,-1896,-663,2897
849,3040,4724,-13660,33.24,236,-1123,79
850,2420,4592,-13864,33.19,334,-1044,904
851,2532,5044,-13792,33.33,-522,140,-998
852,2564,4708,-14088,33.24,-82,-44,-1717
853,2504,4900,-13780,33.28,339,513,-2132
854,2396,4936,-14056,33.24,1199,314,-2320
855,2144,4480,-13924,33.33,410,170,-1418
856,2292,4472,-14012,33.24,-357,-147,-738
857,2600,4444,-14212,33.24,-378,367,124
858,2636,5048,-13052,33.33,406,-15,794
859,2452,4640,-14276,33.24,-737,-200,108
860,2272,4632,-14224,33.38,35,-136,553
861,1980,4740,-13724,33.28,-959,-340,630
862,2572,4204,-14180,33.33,-533,-384,696
863,2532,4628,-13704,33.28,-1885,-174,443
864,3216,4116,-14104,33.38,-550,-538,-149
865,2696,4760,-13796,33.33,116,244,-432
866,3044,4604,-13712,33.24,-948,223,-784
867,2660,4704,-14068,33.33,-29,-819,739
868,2664,4524,-13920,33.24,-622,-526,-431
869,2712,4968,-14224,33.28,-921,-669,-1127
870,2296,5148,-13852,33.28,905,592,-1977
871,1876,4908,-14248,33.24,-252,-180,-710
872,2484,4788,-13880,33.28,74,307,-86
873,2756,4296,-14432,33.38,-780,-1206,480
874,2332,4920,-13448,33.33,680,247,-184
875,2604,4776,-13920,33.28,-1157,152,441
876,2460,4832,-13820,33.24,-139,27,975
877,2800,4820,-13444,33.33,-1464,-269,1324
878,3360,4612,-14248,33.24,-880,-1158,776
879,2256,4792,-13668,33.28,-623,-479,-641
880,3120,4608,-14080,33.33,-920,-2116,1395
881,2108,5444,-13524,33.33,-181,-154,-1252
882,2420,5080,-13688,33.33,-339,87,1898
883,2376,4748,-13992,33.24,-93,-644,-1097
884,2344,4800,-14256,33.33,-82,-140,-482
885,2336,4924,-14080,33.24,-755,-211,-1869
886,1812,5276,-13956,33.24,1168,95,-823
887,2224,4960,-13548,33.28,-411,435,-550
888,2192,4680,-13876,33.33,800,580,-1002
889,2536,4556,-13460,33.24,-29,523,-907
890,2220,4812,-13792,33.28,-589,814,638
891,2308,4896,-13868,33.33,-114,-299,1171
892,2300,4872,-13800,33.28,-494,107,672
893,3028,4596,-13904,33.19,-1595,-483,890
894,2772,4912,-13588,33.24,-957,-548,-240
895,2576,4900,-13856,33.24,-236,-1290,1089
896,2064,5132,-13968,33.28,-1337,-1237,851
897,2120,5040,-14300,33.28,697,-622,217
898,2308,4668,-13536,33.24,-666,354,-431
899,2452,4ˇ                                                                  ,,,,,
900,-1640,8088,-16352,33.24,620,4174,-2094
901,4516,7860,-14312,33.33,2349,11583,-4970
902,1416,8164,-15164,33.24,12248,2267,872
903,2536,5684,-13504,33.24,-1279,7818,698
904,3280,5316,-12856,33.24,-2334,1812,726
905,2288,6632,-12348,33.38,1035,-3827,875
906,2140,5600,-14068,33.28,4430,-1357,-1523
907,2456,6144,-13456,33.33,362,-1418,23
908,2420,5204,-14216,33.33,-352,-1171,-581
909,2536,4924,-13604,33.28,442,-209,841
910,1708,5444,-13588,33.28,-2775,-1369,1671
911,2996,6584,-13656,33.14,-2303,-702,727
912,2216,5912,-13388,33.19,733,610,204
913,2324,5332,-13680,33.24,-536,-441,242
914,2020,6076,-13080,33.19,-727,-1069,489
915,2352,5944,-13740,33.24,-93,13,113
916,2620,5744,-13712,33.19,-622,-329,-99
917,2260,5736,-13548,33.24,-654,-376,131
918,2028,6068,-13436,33.33,-331,-568,110
919,2184,5960,-13340,33.24,-352,-192,120
920,2204,6040,-13432,33.19,-364,-171,-73
921,2112,5948,-13256,33.28,-250,-333,-30
922,2124,5832,-13552,33.38,-153,-488,-16
923,2012,5872,-13224,33.24,-698,-462,-73
924,1896,5920,-13408,33.24,-142,-123,-8
925,1964,5880,-13476,33.24,-431,-126,-132
926,1940,5844,-13452,33.28,-320,-104,-88
927,2028,5968,-13228,33.24,-459,-105,-38
928,1968,5916,-13444,33.24,-292,-37,-31
929,2072,5824,-13404,33.24,-547,-310,-30
930,1928,5980,-13280,33.28,-137,-280,-13
931,1888,5936,-13552,33.28,-329,-231,-30
932,1916,5928,-13488,33.24,-218,-198,-81
933,2012,5908,-13496,33.24,-419,-127,-37
934,2060,5932,-13480,33.14,-274,-141,-36
935,1968,5932,-13316,33.19,-420,-237,-1
936,2004,5880,-13272,33.19,-427,-193,-37
937,1920,5912,-13256,33.14,-68,-136,14
938,1996,5884,-13476,33.28,-84,6,9
939,1852,5864,-13356,33.28,-748,-216,-56
940,2028,5828,-13428,33.33,-234,-155,-11
941,1864,5928,-13424,33.33,-383,-216,-29
942,2004,5820,-13472,33.24,-356,-208,-38
943,2056,5892,-13468,33.19,-104,-113,-63
944,1976,5928,-13304,33.33,-480,-220,-12
945,1920,5972,-13412,33.14,-213,-164,5
946,1952,5860,-13444,33.24,-427,-176,-28
947,1936,5964,-13464,33.24,-130,-158,-49
948,1984,5912,-13376,33.28,-410,-185,-5
949,1952,5900,-13396,33.28,-331,-254,14
950,1936,5940,-13400,33.19,-436,-168,-42
951,1952,5916,-13444,33.28,-415,-218,-72
952,1932,5852,-13364,33.33,135,-137,12
953,1920,5884,-13532,33.28,-204,-273,-25
954,1968,5932,-13456,33.33,1,39,-85
955,1920,5736,-13532,33.14,-482,-183,-8
956,1972,5904,-13524,33.24,-135,-147,-2
957,1992,5768,-13468,33.24,-421,-210,0
958,1976,5824,-13512,33.24,-226,-170,-31
959,1828,5748,-13432,33.14,-438,-96,-15
960,1900,5848,-13460,33.24,-256,-105,-51
961,1916,5768,-13428,33.24,-217,-77,12
962,1920,5796,-13476,33.33,-275,-166,-8
963,1900,5796,-13416,33.33,-399,-158,-41
964,2032,5856,-13428,33.24,-436,-206,-37
965,1932,5868,-13596,33.28,-171,-110,-4
966,1960,5824,-13440,33.19,-47,67,15
967,1952,5736,-13408,33.24,-386,-274,-3
968,1960,5760,-13380,33.24,-264,-229,-69
969,1908,5716,-13592,33.33,-358,-183,-131
970,1788,5788,-13396,33.28,-330,-107,-134
971,1884,5752,-13432,33.24,-320,-72,-125
972,1864,5804,-13476,33.19,-398,4,-177
973,1848,5820,-13524,33.24,-397,-177,-50
974,1908,5824,-13472,33.19,-558,-62,-38
975,1872,5976,-13468,33.19,-303,-225,-45
976,1940,5816,-13404,33.28,-398,-75,-53
977,1968,5844,-13340,33.28,-359,-28,-34
978,1892,5908,-13524,33.28,-437,-95,-80
979,2008,5852,-13456,33.19,-474,-174,-69
980,1936,5904,-13332,33.24,-416,-136,-8
981,1932,5932,-13368,33.33,-161,-193,36
982,1968,5908,-13424,33.24,-559,-236,-13
983,1948,5800,-13408,33.24,-346,-180,-73
984,1940,5952,-13332,33.19,-881,-310,-48
985,2024,6004,-13472,33.19,-320,-98,-38
986,2060,6008,-13352,33.28,-299,-88,-21
987,1940,6056,-13324,33.19,-373,-125,-61
988,1948,6024,-13440,33.24,-243,-209,-1
989,2088,5980,-13396,33.24,-283,-90,-76
990,1876,5908,-13396,33.24,-318,-155,-26
991,1952,5948,-13216,33.33,-349,-99,-1
992,1916,5992,-13380,33.24,-303,-228,-5
993,1940,5972,-13192,33.24,-257,-181,-5
994,1952,5980,-13528,33.33,-381,-178,-78
995,1896,5880,-13532,33.24,-300,-214,-22
996,1868,5976,-13228,33.19,-202,-187,-17
997,1964,5916,-13428,33.28,-354,-151,-42
998,1844,5952,-13324,33.24,-340,-156,-58
999,1956,5888,-13520,33.24,-321,-236,-5
1000,1940,5952,-13468,33.19,-400,-179,-33
1001,1968,5944,-13344,33.19,-872,-344,-12
1002,1996,6000,-13228,33.33,226,-101,-6
1003,1980,5968,-13280,33.24,-453,-284,-8
1004,1904,6036,-13408,33.33,-201,-72,-45
1005,1996,6060,-13316,33.28,-384,-274,-7
1006,1928,5948,-13368,33.19,120,-97,52
1007,1952,5868,-13404,33.19,-602,-380,-18
1008,1840,5896,-13264,33.33,-113,-297,-87
1009,1848,5840,-13528,33.24,-55,-118,-36
1010,1916,5908,-13540,33.19,-248,-154,16
1011,1952,5912,-13376,33.33,-495,-231,-26
1012,1996,5784,-13372,33.14,-276,-186,24
1013,1900,5900,-13300,33.19,-162,-226,25
1014,1844,5932,-13564,33.24,-192,-111,-67
1015,1852,5792,-13532,33.24,-452,-155,9
1016,1768,5932,-13296,33.28,-278,-306,4
1017,1812,5816,-13572,33.19,-323,-218,-11
1018,1884,5776,-13376,33.24,-179,-65,-29
1019,1760,5860,-13556,33.24,-374,-197,-34
1020,1852,5716,-13352,33.19,-558,-249,-46
1021,1924,5908,-13500,33.33,-256,-81,-10
1022,1736,5804,-13320,33.24,-337,-168,-43
1023,1800,5824,-13452,33.19,92,-49,84
1024,1876,5864,-13516,33.33,-547,-191,-22
1025,1752,5856,-13436,33.19,-303,-156,-19
1026,1848,5772,-13444,33.24,-497,-202,-19
1027,1916,5832,-13460,33.24,-71,-105,-13
1028,1920,5780,-13436,33.28,-470,-168,11
1029,1944,5768,-13552,33.24,-130,-35,-9
1030,1764,5824,-13340,33.24,-384,-278,-46
1031,1772,5924,-13452,33.24,-51,0,-58
1032,1816,5832,-13396,33.28,-361,-69,-68
1033,1900,5844,-13472,33.24,183,-98,22
1034,2040,5664,-13416,33.28,-321,235,-103
1035,1836,5756,-13496,33.24,-390,-118,-46
1036,1940,5760,-13564,33.28,-255,-250,-3
1037,1952,5688,-13588,33.24,-141,-4,-61
1038,2040,5568,-13420,33.24,-615,-9,-84
1039,1928,5720,-13412,33.33,-293,-127,-3
1040,1836,5604,-13564,33.33,-283,-262,37
1041,1836,5732,-13416,33.28,-436,-133,-46
1042,1948,5688,-13476,33.14,-339,-45,-63
1043,1992,5748,-13616,33.24,-408,-68,-7
1044,2024,5796,-13620,33.24,-335,-62,-10
1045,1980,5812,-13496,33.28,-434,-156,-31
1046,2008,5856,-13300,33.33,-237,-215,13
1047,1996,5768,-13500,33.33,-362,-180,-37
1048,2016,5808,-13544,33.28,-324,-191,-31
1049,1972,5716,-13464,33.14,-338,-122,-53
1050,1964,5716,-13408,33.19,-538,-306,-15
1051,1948,5832,-13220,33.24,-666,-534,28
1052,1880,5896,-13352,33.24,-137,-178,18
1053,1924,5684,-13460,33.19,-482,-48,-72
1054,1860,5912,-13440,33.19,-218,-109,-22
1055,2032,5816,-13412,33.24,-337,-105,-2
1056,1988,5828,-13572,33.19,-249,-90,-25
1057,1992,5840,-13488,33.28,-348,-249,-45
1058,1976,5812,-13660,33.Ú                                              ,,,
Sample,aX,aY,az,Temp,gX,gY,gz                                                   
1,7088,6300,-11692,33.38,-618,-77,-156
2,7280,6176,-11936,33.47,605,-66,60
3,7240,6064,-11744,33.42,-727,-155,-205
4,7180,6312,-11896,33.33,-550,-17,-130
5,7088,6440,-11628,33.42,-939,-318,-248
6,7116,6316,-11780,33.38,-325,-444,-145
7,7216,6256,-11804,33.38,-540,-428,-184
8,7200,6460,-11956,33.33,-570,-496,-169
9,7172,6420,-11900,33.38,-222,-268,-142
10,7008,6364,-11800,33.38,-473,-72,-211
11,7132,6292,-12008,33.33,-775,278,-240
12,7184,6548,-11828,33.33,-590,211,-143
13,7220,6424,-11660,33.42,28,-15,23
14,7304,6468,-11832,33.38,-280,214,-108
±                                                                               ,,,,,,,